,expt_id,Group,group_id,invRT,Trial,participant_id,response_correct,response_name,response_rt,stimuli_presented,trial_template,trial_duration,PartBlocks,AllBlocks,Pattern,trial_num,PB,Final,Part,Correct
602,,DispreferenceFirst,dispreferenceFirst,-0.6476683937823834,,,,,1544,pigep,,574306,,,Devoicing,625,p,Final,,
385,,DispreferenceFirst,dispreferenceFirst,-0.9624639076034649,,,,,1039,gutob,,194786,,,Voicing,408,b,Final,,
213,,DispreferenceFirst,dispreferenceFirst,-0.7886435331230284,,,,,1268,gutop,,416248,,,Devoicing,236,p,Final,,
183,,DispreferenceFirst,dispreferenceFirst,-0.6715916722632639,,,,,1489,pigep,,361388,,,Devoicing,206,p,Final,,
551,,DispreferenceFirst,dispreferenceFirst,-0.5787037037037037,,,,,1728,dikebe,,484933,,,Voicing,574,b,NonFinal,,
382,,DispreferenceFirst,dispreferenceFirst,-0.7880220646178093,,,,,1269,dogib,,190737,,,Voicing,405,b,Final,,
446,,DispreferenceFirst,dispreferenceFirst,-0.9514747859181731,,,,,1051,degob,,301027,,,Voicing,469,b,Final,,
1126,,DispreferenceFirst,dispreferenceFirst,-0.7535795026375283,,,,,1327,pidop,,708401,,,Devoicing,1149,p,Final,,
470,,DispreferenceFirst,dispreferenceFirst,-0.916590284142988,,,,,1091,bogeb,,338739,,,Voicing,493,b,Final,,
660,,DispreferenceFirst,dispreferenceFirst,-0.20571898786257972,,,,,4861,,,655211,,,Devoicing,683,,Final,,
730,,DispreferenceFirst,dispreferenceFirst_inverse,-0.9578544061302682,,,,,1044,todub,,207965,,,Voicing,753,b,Final,,
1129,,DispreferenceFirst,dispreferenceFirst,-0.36791758646063283,,,,,2718,pigep,,714050,,,Devoicing,1152,p,Final,,
672,,DispreferenceFirst,dispreferenceFirst_inverse,-1.0351966873706004,,,,,966,maybe,,98346,,,Voicing,695,b,NonFinal,,
882,,DispreferenceFirst,dispreferenceFirst,-0.7052186177715092,,,,,1418,gotepe,,229039,,,Devoicing,905,p,NonFinal,,
930,,DispreferenceFirst,dispreferenceFirst,-0.526592943654555,,,,,1899,bogeb,,305385,,,Voicing,953,b,Final,,
768,,DispreferenceFirst,dispreferenceFirst_inverse,-0.7002801120448179,,,,,1428,degope,,271373,,,Devoicing,791,p,NonFinal,,
852,,DispreferenceFirst,dispreferenceFirst,-0.25621316935690497,,,,,3903,dokub,,171009,,,Voicing,875,b,Final,,
1006,,DispreferenceFirst,dispreferenceFirst,-0.39093041438623927,,,,,2558,gutob,,440670,,,Voicing,1029,b,Final,,
376,,DispreferenceFirst,dispreferenceFirst,-1.0224948875255624,,,,,978,bidob,,182039,,,Voicing,399,b,Final,,
323,,DispreferenceFirst,dispreferenceFirst,-0.8389261744966443,,,,,1192,dikep,,605643,,,Devoicing,346,p,Final,,
572,,DispreferenceFirst,dispreferenceFirst,-0.835421888053467,,,,,1197,gutop,,530734,,,Devoicing,595,p,Final,,
931,,DispreferenceFirst,dispreferenceFirst,-0.7077140835102619,,,,,1413,degob,,306955,,,Voicing,954,b,Final,,
1012,,DispreferenceFirst,dispreferenceFirst,-0.7158196134574087,,,,,1397,tekupe,,450738,,,Devoicing,1035,p,NonFinal,,
211,,DispreferenceFirst,dispreferenceFirst,-0.8278145695364238,,,,,1208,pidop,,412948,,,Devoicing,234,p,Final,,
42,,DispreferenceFirst,dispreferenceFirst,-1.002004008016032,,,,,998,tekub,,143378,,,Voicing,65,b,Final,,
44,,DispreferenceFirst,dispreferenceFirst,-0.8347245409015025,,,,,1198,todipe,,146497,,,Devoicing,67,p,NonFinal,,
20,,DispreferenceFirst,dispreferenceFirst,-0.800640512409928,,,,,1249,dogipe,,106365,,,Devoicing,43,p,NonFinal,,
1168,,DispreferenceFirst,dispreferenceFirst,-0.6802721088435374,,,,,1470,dogip,,779808,,,Devoicing,1191,p,Final,,
159,,DispreferenceFirst,dispreferenceFirst,-0.8143322475570033,,,,,1228,pigepe,,322205,,,Devoicing,182,p,NonFinal,,
118,,DispreferenceFirst,dispreferenceFirst,-0.5868544600938967,,,,,1704,dikepe,,261076,,,Devoicing,141,p,NonFinal,,
356,,DispreferenceFirst,dispreferenceFirst,-0.9578544061302682,,,,,1044,bogeb,,146045,,,Voicing,379,b,Final,,
661,,DispreferenceFirst,dispreferenceFirst_inverse,-0.5249343832020997,,,,,1905,bumblebee,,80509,,,Voicing,684,b,NonFinal,,
963,,DispreferenceFirst,dispreferenceFirst,-0.6954102920723226,,,,,1438,todipe,,364504,,,Devoicing,986,p,NonFinal,,
837,,DispreferenceFirst,dispreferenceFirst_inverse,-0.7704160246533128,,,,,1298,pigepe,,383753,,,Devoicing,860,p,NonFinal,,
1146,,DispreferenceFirst,dispreferenceFirst,-0.9372071227741331,,,,,1067,bikup,,741235,,,Devoicing,1169,p,Final,,
670,,DispreferenceFirst,dispreferenceFirst_inverse,-1.2919896640826873,,,,,774,hippie,,94746,,,Devoicing,693,p,NonFinal,,
137,,DispreferenceFirst,dispreferenceFirst,-0.8271298593879239,,,,,1209,potipe,,288931,,,Devoicing,160,p,NonFinal,,
263,,DispreferenceFirst,dispreferenceFirst,-0.6013229104028863,,,,,1663,pigebe,,502722,,,Voicing,286,b,NonFinal,,
1026,,DispreferenceFirst,dispreferenceFirst,-0.24295432458697766,,,,,4116,bugip,,491211,,,Devoicing,1049,p,Final,,
812,,DispreferenceFirst,dispreferenceFirst_inverse,-0.1699524133242692,,,,,5884,,,341581,,,Devoicing,835,,Final,,
820,,DispreferenceFirst,dispreferenceFirst_inverse,-0.8904719501335708,,,,,1123,dogib,,352429,,,Voicing,843,b,Final,,
464,,DispreferenceFirst,dispreferenceFirst,-0.7987220447284346,,,,,1252,bikube,,330341,,,Devoicing,487,p,NonFinal,,
282,,DispreferenceFirst,dispreferenceFirst,-0.6226650062266501,,,,,1606,bikup,,533816,,,Devoicing,305,p,Final,,
23,,DispreferenceFirst,dispreferenceFirst,-0.9970089730807578,,,,,1003,todub,,110194,,,Voicing,46,b,Final,,
84,,DispreferenceFirst,dispreferenceFirst,-0.6738544474393531,,,,,1484,todipe,,207696,,,Devoicing,107,p,NonFinal,,
643,,DispreferenceFirst,dispreferenceFirst,-0.7593014426727411,,,,,1317,bugibe,,630906,,,Voicing,666,b,NonFinal,,
407,,DispreferenceFirst,dispreferenceFirst,-0.8488964346349746,,,,,1178,dogipe,,242348,,,Devoicing,430,p,NonFinal,,
488,,DispreferenceFirst,dispreferenceFirst,-0.8084074373484236,,,,,1237,pigepe,,362106,,,Devoicing,511,p,NonFinal,,
103,,DispreferenceFirst,dispreferenceFirst,-0.7374631268436578,,,,,1356,tekub,,237021,,,Voicing,126,b,Final,,
1128,,DispreferenceFirst,dispreferenceFirst,-0.8244023083264633,,,,,1213,tekup,,711181,,,Devoicing,1151,p,Final,,
706,,DispreferenceFirst,dispreferenceFirst_inverse,-0.7267441860465116,,,,,1376,dokub,,160604,,,Voicing,729,b,Final,,
1166,,DispreferenceFirst,dispreferenceFirst,-0.819000819000819,,,,,1221,bugip,,776729,,,Devoicing,1189,p,Final,,
310,,DispreferenceFirst,dispreferenceFirst,-0.6958942240779401,,,,,1437,degobe,,582337,,,Voicing,333,b,NonFinal,,
204,,DispreferenceFirst,dispreferenceFirst,-0.4299226139294927,,,,,2326,potibe,,401591,,,Voicing,227,b,NonFinal,,
1004,,DispreferenceFirst,dispreferenceFirst,-0.628140703517588,,,,,1592,tekub,,435181,,,Voicing,1027,b,Final,,
623,,DispreferenceFirst,dispreferenceFirst,-0.9813542688910697,,,,,1019,todip,,604221,,,Devoicing,646,p,Final,,
122,,DispreferenceFirst,dispreferenceFirst,-0.8771929824561403,,,,,1140,todipe,,266396,,,Devoicing,145,p,NonFinal,,
196,,DispreferenceFirst,dispreferenceFirst,-0.6377551020408163,,,,,1568,bidop,,387443,,,Devoicing,219,p,Final,,
101,,DispreferenceFirst,dispreferenceFirst,-1.017293997965412,,,,,983,dikeb,,234221,,,Voicing,124,b,Final,,
627,,DispreferenceFirst,dispreferenceFirst,-0.39447731755424065,,,,,2535,,,610000,,,Devoicing,650,,Final,,
542,,DispreferenceFirst,dispreferenceFirst,-0.5668934240362812,,,,,1764,bikup,,470285,,,Devoicing,565,p,Final,,
692,,DispreferenceFirst,dispreferenceFirst_inverse,-0.9487666034155597,,,,,1054,bidob,,138478,,,Voicing,715,b,Final,,
911,,DispreferenceFirst,dispreferenceFirst,-0.8771929824561403,,,,,1140,dogib,,275520,,,Voicing,934,b,Final,,
1140,,DispreferenceFirst,dispreferenceFirst,-0.7593014426727411,,,,,1317,bidobe,,732817,,,Voicing,1163,b,NonFinal,,
773,,DispreferenceFirst,dispreferenceFirst_inverse,-0.6574621959237343,,,,,1521,pidob,,279712,,,Voicing,796,b,Final,,
1030,,DispreferenceFirst,dispreferenceFirst,-0.26392187912377935,,,,,3789,pidop,,503429,,,Devoicing,1053,p,Final,,
15,,DispreferenceFirst,dispreferenceFirst,-0.7267441860465116,,,,,1376,tekupe,,99766,,,Devoicing,38,p,NonFinal,,
219,,DispreferenceFirst,dispreferenceFirst,-0.6035003017501509,,,,,1657,tekube,,427876,,,Voicing,242,b,NonFinal,,
4,,DispreferenceFirst,dispreferenceFirst,-0.6447453255963894,,,,,1551,bugipe,,82029,,,Devoicing,27,p,NonFinal,,
324,,DispreferenceFirst,dispreferenceFirst,-0.49091801669121254,,,,,2037,dokube,,607893,,,Voicing,347,b,NonFinal,,
428,,DispreferenceFirst,dispreferenceFirst,-0.9727626459143969,,,,,1028,potipe,,269043,,,Devoicing,451,p,NonFinal,,
695,,DispreferenceFirst,dispreferenceFirst_inverse,-0.7911392405063291,,,,,1264,dogipe,,142777,,,Devoicing,718,p,NonFinal,,
943,,DispreferenceFirst,dispreferenceFirst,-0.8312551953449709,,,,,1203,dokub,,326401,,,Voicing,966,b,Final,,
16,,DispreferenceFirst,dispreferenceFirst,-0.9871668311944719,,,,,1013,bogeb,,100946,,,Voicing,39,b,Final,,
134,,DispreferenceFirst,dispreferenceFirst,-0.9259259259259259,,,,,1080,dogib,,284562,,,Voicing,157,b,Final,,
743,,DispreferenceFirst,dispreferenceFirst_inverse,-0.7092198581560284,,,,,1410,tekupe,,227622,,,Devoicing,766,p,NonFinal,,
915,,DispreferenceFirst,dispreferenceFirst,-0.700770847932726,,,,,1427,gotepe,,281599,,,Devoicing,938,p,NonFinal,,
86,,DispreferenceFirst,dispreferenceFirst,-0.7530120481927711,,,,,1328,dogib,,210596,,,Voicing,109,b,Final,,
973,,DispreferenceFirst,dispreferenceFirst,-1.0869565217391304,,,,,920,dokub,,381071,,,Voicing,996,b,Final,,
562,,DispreferenceFirst,dispreferenceFirst,-0.6925207756232687,,,,,1444,gotebe,,513917,,,Voicing,585,b,NonFinal,,
193,,DispreferenceFirst,dispreferenceFirst,-0.5083884087442806,,,,,1967,pigebe,,382124,,,Voicing,216,b,NonFinal,,
426,,DispreferenceFirst,dispreferenceFirst,-0.9718172983479106,,,,,1029,bogeb,,266373,,,Voicing,449,b,Final,,
832,,DispreferenceFirst,dispreferenceFirst_inverse,-0.56657223796034,,,,,1765,bikub,,375904,,,Voicing,855,b,Final,,
949,,DispreferenceFirst,dispreferenceFirst,-0.3566333808844508,,,,,2804,,,336900,,,Devoicing,972,,Final,,
843,,DispreferenceFirst,dispreferenceFirst_inverse,-0.7627765064836003,,,,,1311,potipe,,392001,,,Devoicing,866,p,NonFinal,,
829,,DispreferenceFirst,dispreferenceFirst_inverse,-0.6305170239596469,,,,,1586,pidope,,371325,,,Devoicing,852,p,NonFinal,,
52,,DispreferenceFirst,dispreferenceFirst,-0.7251631617113851,,,,,1379,bidope,,157296,,,Devoicing,75,p,NonFinal,,
479,,DispreferenceFirst,dispreferenceFirst,-0.9578544061302682,,,,,1044,goteb,,350768,,,Voicing,502,b,Final,,
1001,,DispreferenceFirst,dispreferenceFirst,-0.6978367062107467,,,,,1433,degope,,429802,,,Devoicing,1024,p,NonFinal,,
320,,DispreferenceFirst,dispreferenceFirst,-0.5524861878453039,,,,,1810,pidobe,,599754,,,Voicing,343,b,NonFinal,,
334,,DispreferenceFirst,dispreferenceFirst,-0.6939625260235948,,,,,1441,pigeb,,114481,,,Voicing,357,b,Final,,
507,,DispreferenceFirst,dispreferenceFirst,-0.6747638326585695,,,,,1482,todube,,403918,,,Voicing,530,b,NonFinal,,
40,,DispreferenceFirst,dispreferenceFirst,-0.7304601899196493,,,,,1369,todupe,,140709,,,Devoicing,63,p,NonFinal,,
906,,DispreferenceFirst,dispreferenceFirst,-0.5899705014749262,,,,,1695,gutope,,267852,,,Devoicing,929,p,NonFinal,,
1,,DispreferenceFirst,dispreferenceFirst,-0.47778308647873863,,,,,2093,dokub,,76660,,,Voicing,24,b,Final,,
774,,DispreferenceFirst,dispreferenceFirst_inverse,-0.5238344683080147,,,,,1909,dikepe,,281781,,,Devoicing,797,p,NonFinal,,
619,,DispreferenceFirst,dispreferenceFirst,-0.8496176720475785,,,,,1177,dogibe,,599081,,,Voicing,642,b,NonFinal,,
1083,,DispreferenceFirst,dispreferenceFirst,-0.5192107995846313,,,,,1926,dikep,,623718,,,Devoicing,1106,p,Final,,
499,,DispreferenceFirst,dispreferenceFirst,-0.5521811154058531,,,,,1811,gotebe,,391290,,,Voicing,522,b,NonFinal,,
1148,,DispreferenceFirst,dispreferenceFirst,-0.40096230954290296,,,,,2494,gutobe,,745165,,,Voicing,1171,b,NonFinal,,
541,,DispreferenceFirst,dispreferenceFirst,-0.49677098857426727,,,,,2013,bogebe,,468326,,,Voicing,564,b,NonFinal,,
458,,DispreferenceFirst,dispreferenceFirst,-0.7849293563579278,,,,,1274,bogepe,,316974,,,Devoicing,481,p,NonFinal,,
162,,DispreferenceFirst,dispreferenceFirst,-0.5714285714285714,,,,,1750,pigeb,,326424,,,Voicing,185,b,Final,,
941,,DispreferenceFirst,dispreferenceFirst,-0.7686395080707148,,,,,1301,dikeb,,323742,,,Voicing,964,b,Final,,
266,,DispreferenceFirst,dispreferenceFirst,-0.8598452278589854,,,,,1163,pigep,,507781,,,Devoicing,289,p,Final,,
66,,DispreferenceFirst,dispreferenceFirst,-0.25195263290501385,,,,,3969,,,180561,,,Devoicing,89,,Final,,
457,,DispreferenceFirst,dispreferenceFirst,-0.8525149190110827,,,,,1173,gutope,,315464,,,Devoicing,480,p,NonFinal,,
170,,DispreferenceFirst,dispreferenceFirst,-1.1737089201877935,,,,,852,dokup,,338932,,,Devoicing,193,p,Final,,
48,,DispreferenceFirst,dispreferenceFirst,-0.9699321047526673,,,,,1031,bogeb,,151947,,,Voicing,71,b,Final,,
727,,DispreferenceFirst,dispreferenceFirst_inverse,-0.7407407407407407,,,,,1350,bogepe,,203466,,,Devoicing,750,p,NonFinal,,
679,,DispreferenceFirst,dispreferenceFirst_inverse,-1.2578616352201257,,,,,795,typo,,111473,,,Devoicing,702,p,NonFinal,,
791,,DispreferenceFirst,dispreferenceFirst_inverse,-0.8453085376162299,,,,,1183,dogipe,,309796,,,Devoicing,814,p,NonFinal,,
429,,DispreferenceFirst,dispreferenceFirst,-0.08616232982939859,,,,,11606,,,279621,,,Devoicing,452,,Final,,
947,,DispreferenceFirst,dispreferenceFirst,-0.8779631255487269,,,,,1139,dogipe,,333850,,,Devoicing,970,p,NonFinal,,
719,,DispreferenceFirst,dispreferenceFirst_inverse,-0.5141388174807198,,,,,1945,dogib,,191818,,,Voicing,742,b,Final,,
893,,DispreferenceFirst,dispreferenceFirst,-0.8382229673093042,,,,,1193,potib,,246896,,,Voicing,916,b,Final,,
412,,DispreferenceFirst,dispreferenceFirst,-37.03703703703704,,,,,27,todub,,247996,,,Voicing,435,b,Final,,
33,,DispreferenceFirst,dispreferenceFirst,-0.16276041666666666,,,,,6144,,,130380,,,Devoicing,56,,Final,,
965,,DispreferenceFirst,dispreferenceFirst,-1.037344398340249,,,,,964,degob,,367784,,,Voicing,988,b,Final,,
1008,,DispreferenceFirst,dispreferenceFirst,-0.9442870632672332,,,,,1059,todupe,,443010,,,Devoicing,1031,p,NonFinal,,
582,,DispreferenceFirst,dispreferenceFirst,-1.0298661174047374,,,,,971,degop,,546131,,,Devoicing,605,p,Final,,
978,,DispreferenceFirst,dispreferenceFirst,-0.9354536950420954,,,,,1069,bugib,,387860,,,Voicing,1001,b,Final,,
897,,DispreferenceFirst,dispreferenceFirst,-0.9199632014719411,,,,,1087,bugipe,,253534,,,Devoicing,920,p,NonFinal,,
728,,DispreferenceFirst,dispreferenceFirst_inverse,-0.7733952049497294,,,,,1293,bugib,,204956,,,Voicing,751,b,Final,,
1108,,DispreferenceFirst,dispreferenceFirst,-0.43459365493263796,,,,,2301,gotebe,,678687,,,Voicing,1131,b,NonFinal,,
459,,DispreferenceFirst,dispreferenceFirst,-1.0080645161290323,,,,,992,bidob,,318124,,,Voicing,482,b,Final,,
653,,DispreferenceFirst,dispreferenceFirst,-0.9442870632672332,,,,,1059,bidobe,,643593,,,Voicing,676,b,NonFinal,,
229,,DispreferenceFirst,dispreferenceFirst,-0.3522367030644593,,,,,2839,todube,,447092,,,Voicing,252,b,NonFinal,,
985,,DispreferenceFirst,dispreferenceFirst,-0.9478672985781991,,,,,1055,potib,,398438,,,Voicing,1008,b,Final,,
164,,DispreferenceFirst,dispreferenceFirst,-0.6939625260235948,,,,,1441,dogipe,,329494,,,Devoicing,187,p,NonFinal,,
343,,DispreferenceFirst,dispreferenceFirst,-0.7479431563201197,,,,,1337,pidope,,127649,,,Devoicing,366,p,NonFinal,,
716,,DispreferenceFirst,dispreferenceFirst_inverse,-1.001001001001001,,,,,999,todib,,186859,,,Voicing,739,b,Final,,
197,,DispreferenceFirst,dispreferenceFirst,-0.4528985507246377,,,,,2208,pidobe,,389803,,,Voicing,220,b,NonFinal,,
609,,DispreferenceFirst,dispreferenceFirst,-0.8547008547008547,,,,,1170,bugibe,,585444,,,Voicing,632,b,NonFinal,,
2,,DispreferenceFirst,dispreferenceFirst,-0.5910165484633569,,,,,1692,bidope,,78540,,,Devoicing,25,p,NonFinal,,
1178,,DispreferenceFirst,dispreferenceFirst,-0.7429420505200595,,,,,1346,bidop,,796595,,,Devoicing,1201,p,Final,,
1136,,DispreferenceFirst,dispreferenceFirst,-0.46511627906976744,,,,,2150,potip,,726039,,,Devoicing,1159,p,Final,,
849,,DispreferenceFirst,dispreferenceFirst_inverse,-0.1392369813422445,,,,,7182,,,622929,,,Devoicing,872,,Final,,
425,,DispreferenceFirst,dispreferenceFirst,-0.8673026886383348,,,,,1153,gotepe,,265163,,,Devoicing,448,p,NonFinal,,
767,,DispreferenceFirst,dispreferenceFirst_inverse,-0.7256894049346879,,,,,1378,dokupe,,269784,,,Devoicing,790,p,NonFinal,,
1002,,DispreferenceFirst,dispreferenceFirst,-0.7062146892655368,,,,,1416,dokub,,431372,,,Voicing,1025,b,Final,,
318,,DispreferenceFirst,dispreferenceFirst,-0.5263157894736842,,,,,1900,bidobe,,596285,,,Voicing,341,b,NonFinal,,
733,,DispreferenceFirst,dispreferenceFirst_inverse,-0.5534034311012729,,,,,1807,gutope,,213124,,,Devoicing,756,p,NonFinal,,
136,,DispreferenceFirst,dispreferenceFirst,-0.6934812760055479,,,,,1442,todipe,,287571,,,Devoicing,159,p,NonFinal,,
1161,,DispreferenceFirst,dispreferenceFirst,-0.3904724716907458,,,,,2561,bikup,,766111,,,Devoicing,1184,p,Final,,
875,,DispreferenceFirst,dispreferenceFirst,-0.8210180623973727,,,,,1218,todupe,,215751,,,Devoicing,898,p,NonFinal,,
649,,DispreferenceFirst,dispreferenceFirst,-0.7027406886858749,,,,,1423,pidobe,,638694,,,Voicing,672,b,NonFinal,,
914,,DispreferenceFirst,dispreferenceFirst,-0.6257822277847309,,,,,1598,bogepe,,279970,,,Devoicing,937,p,NonFinal,,
970,,DispreferenceFirst,dispreferenceFirst,-0.44228217602830605,,,,,2261,dikeb,,375562,,,Voicing,993,b,Final,,
605,,DispreferenceFirst,dispreferenceFirst,-0.7440476190476191,,,,,1344,bidop,,579865,,,Devoicing,628,p,Final,,
368,,DispreferenceFirst,dispreferenceFirst,-0.9149130832570905,,,,,1093,todub,,172001,,,Voicing,391,b,Final,,
690,,DispreferenceFirst,dispreferenceFirst_inverse,-0.8077544426494345,,,,,1238,tekub,,135869,,,Voicing,713,b,Final,,
295,,DispreferenceFirst,dispreferenceFirst,-0.5837711617046117,,,,,1713,degop,,555972,,,Devoicing,318,p,Final,,
625,,DispreferenceFirst,dispreferenceFirst,-0.8857395925597874,,,,,1129,potibe,,607260,,,Voicing,648,b,NonFinal,,
361,,DispreferenceFirst,dispreferenceFirst,-0.856898029134533,,,,,1167,gutob,,152374,,,Voicing,384,b,Final,,
494,,DispreferenceFirst,dispreferenceFirst,-0.5608524957936063,,,,,1783,pidob,,372264,,,Voicing,517,b,Final,,
1149,,DispreferenceFirst,dispreferenceFirst,-0.8598452278589854,,,,,1163,gutop,,746484,,,Devoicing,1172,p,Final,,
781,,DispreferenceFirst,dispreferenceFirst_inverse,-0.8271298593879239,,,,,1209,bugipe,,296589,,,Devoicing,804,p,NonFinal,,
1062,,DispreferenceFirst,dispreferenceFirst,-0.41841004184100417,,,,,2390,gotebe,,579915,,,Voicing,1085,b,NonFinal,,
139,,DispreferenceFirst,dispreferenceFirst,-0.5980861244019139,,,,,1672,todib,,291861,,,Voicing,162,b,Final,,
288,,DispreferenceFirst,dispreferenceFirst,-0.724112961622013,,,,,1381,potibe,,542695,,,Voicing,311,b,NonFinal,,
558,,DispreferenceFirst,dispreferenceFirst,-0.727802037845706,,,,,1374,bidobe,,496410,,,Voicing,581,b,NonFinal,,
1049,,DispreferenceFirst,dispreferenceFirst,-0.32808398950131235,,,,,3048,tekup,,549420,,,Devoicing,1072,p,Final,,
757,,DispreferenceFirst,dispreferenceFirst_inverse,-0.6622516556291391,,,,,1510,bikupe,,253887,,,Devoicing,780,p,NonFinal,,
344,,DispreferenceFirst,dispreferenceFirst,-0.9775171065493646,,,,,1023,bikub,,128829,,,Voicing,367,b,Final,,
1035,,DispreferenceFirst,dispreferenceFirst,-0.2732987154960372,,,,,3659,dokup,,516976,,,Devoicing,1058,p,Final,,
760,,DispreferenceFirst,dispreferenceFirst_inverse,-0.7057163020465773,,,,,1417,pidope,,258506,,,Devoicing,783,p,NonFinal,,
469,,DispreferenceFirst,dispreferenceFirst,-0.8787346221441125,,,,,1138,todipe,,337350,,,Devoicing,492,p,NonFinal,,
13,,DispreferenceFirst,dispreferenceFirst,-0.8116883116883117,,,,,1232,pigeb,,96737,,,Voicing,36,b,Final,,
708,,DispreferenceFirst,dispreferenceFirst_inverse,-0.5467468562055768,,,,,1829,todib,,165453,,,Voicing,731,b,Final,,
575,,DispreferenceFirst,dispreferenceFirst,-0.5643340857787811,,,,,1772,bikube,,536983,,,Voicing,598,b,NonFinal,,
158,,DispreferenceFirst,dispreferenceFirst,-0.7479431563201197,,,,,1337,bidope,,320825,,,Devoicing,181,p,NonFinal,,
1021,,DispreferenceFirst,dispreferenceFirst,-0.28851702250432776,,,,,3466,dogibe,,477884,,,Voicing,1044,b,NonFinal,,
674,,DispreferenceFirst,dispreferenceFirst_inverse,-0.46490004649000466,,,,,2151,pope,,102985,,,Devoicing,697,p,NonFinal,,
858,,DispreferenceFirst,dispreferenceFirst,-0.5063291139240507,,,,,1975,bugib,,184357,,,Voicing,881,b,Final,,
398,,DispreferenceFirst,dispreferenceFirst,-1.016260162601626,,,,,984,bugib,,229750,,,Voicing,421,b,Final,,
366,,DispreferenceFirst,dispreferenceFirst,-0.6153846153846154,,,,,1625,potib,,169311,,,Voicing,389,b,Final,,
1085,,DispreferenceFirst,dispreferenceFirst,-0.612369871402327,,,,,1633,dokup,,628406,,,Devoicing,1108,p,Final,,
319,,DispreferenceFirst,dispreferenceFirst,-0.7855459544383346,,,,,1273,tekup,,597755,,,Devoicing,342,p,Final,,
940,,DispreferenceFirst,dispreferenceFirst,-0.702247191011236,,,,,1424,potipe,,322292,,,Devoicing,963,p,NonFinal,,
521,,DispreferenceFirst,dispreferenceFirst,-0.5714285714285714,,,,,1750,dokup,,426344,,,Devoicing,544,p,Final,,
896,,DispreferenceFirst,dispreferenceFirst,-0.8795074758135444,,,,,1137,bidope,,252215,,,Devoicing,919,p,NonFinal,,
583,,DispreferenceFirst,dispreferenceFirst,-0.5521811154058531,,,,,1811,pigebe,,548141,,,Voicing,606,b,NonFinal,,
922,,DispreferenceFirst,dispreferenceFirst,-1.0245901639344261,,,,,976,bugib,,293187,,,Voicing,945,b,Final,,
420,,DispreferenceFirst,dispreferenceFirst,-0.8382229673093042,,,,,1193,gutope,,258784,,,Devoicing,443,p,NonFinal,,
698,,DispreferenceFirst,dispreferenceFirst_inverse,-0.8525149190110827,,,,,1173,pidob,,147047,,,Voicing,721,b,Final,,
1093,,DispreferenceFirst,dispreferenceFirst,-0.32393909944930355,,,,,3087,todip,,647703,,,Devoicing,1116,p,Final,,
14,,DispreferenceFirst,dispreferenceFirst,-0.7468259895444361,,,,,1339,pigepe,,98236,,,Devoicing,37,p,NonFinal,,
180,,DispreferenceFirst,dispreferenceFirst,-0.5652911249293386,,,,,1769,dogibe,,354689,,,Voicing,203,b,NonFinal,,
1073,,DispreferenceFirst,dispreferenceFirst,-0.5488474204171241,,,,,1822,bugibe,,604901,,,Voicing,1096,b,NonFinal,,
1044,,DispreferenceFirst,dispreferenceFirst,-0.5920663114268798,,,,,1689,bikube,,539182,,,Voicing,1067,b,NonFinal,,
944,,DispreferenceFirst,dispreferenceFirst,-0.4982561036372696,,,,,2007,todupe,,328601,,,Devoicing,967,p,NonFinal,,
612,,DispreferenceFirst,dispreferenceFirst,-1.1111111111111112,,,,,900,gutop,,589863,,,Devoicing,635,p,Final,,
121,,DispreferenceFirst,dispreferenceFirst,-0.9363295880149812,,,,,1068,goteb,,265106,,,Voicing,144,b,Final,,
257,,DispreferenceFirst,dispreferenceFirst,-0.7401924500370096,,,,,1351,pidop,,493334,,,Devoicing,280,p,Final,,
543,,DispreferenceFirst,dispreferenceFirst,-0.5136106831022085,,,,,1947,bikube,,472375,,,Voicing,566,b,NonFinal,,
351,,DispreferenceFirst,dispreferenceFirst,-0.757002271006813,,,,,1321,potipe,,138747,,,Devoicing,374,p,NonFinal,,
332,,DispreferenceFirst,dispreferenceFirst,-0.5656108597285068,,,,,1768,bogepe,,111222,,,Devoicing,355,p,NonFinal,,
325,,DispreferenceFirst,dispreferenceFirst,-0.6609385327164574,,,,,1513,bikup,,609612,,,Devoicing,348,p,Final,,
119,,DispreferenceFirst,dispreferenceFirst,-0.6211180124223602,,,,,1610,pigepe,,262836,,,Devoicing,142,p,NonFinal,,
1117,,DispreferenceFirst,dispreferenceFirst,-0.5656108597285068,,,,,1768,gotep,,694874,,,Devoicing,1140,p,Final,,
347,,DispreferenceFirst,dispreferenceFirst,-0.7656967840735069,,,,,1306,tekupe,,133048,,,Devoicing,370,p,NonFinal,,
964,,DispreferenceFirst,dispreferenceFirst,-0.5027652086475616,,,,,1989,todupe,,366644,,,Devoicing,987,p,NonFinal,,
735,,DispreferenceFirst,dispreferenceFirst_inverse,-1.0615711252653928,,,,,942,bidob,,215654,,,Voicing,758,b,Final,,
1046,,DispreferenceFirst,dispreferenceFirst,-0.6653359946773121,,,,,1503,todube,,542552,,,Voicing,1069,b,NonFinal,,
409,,DispreferenceFirst,dispreferenceFirst,-0.8764241893076249,,,,,1141,dokupe,,244887,,,Devoicing,432,p,NonFinal,,
1061,,DispreferenceFirst,dispreferenceFirst,-0.7336757153338225,,,,,1363,degop,,577375,,,Devoicing,1084,p,Final,,
1070,,DispreferenceFirst,dispreferenceFirst,-0.44583147570218457,,,,,2243,gutop,,599001,,,Devoicing,1093,p,Final,,
81,,DispreferenceFirst,dispreferenceFirst,-0.9587727708533078,,,,,1043,potipe,,202037,,,Devoicing,104,p,NonFinal,,
957,,DispreferenceFirst,dispreferenceFirst,-0.2892681515765114,,,,,3457,bikupe,,353716,,,Devoicing,980,p,NonFinal,,
1032,,DispreferenceFirst,dispreferenceFirst,-0.585480093676815,,,,,1708,pidobe,,507179,,,Voicing,1055,b,NonFinal,,
1050,,DispreferenceFirst,dispreferenceFirst,-0.6361323155216285,,,,,1572,pigebe,,551140,,,Voicing,1073,b,NonFinal,,
370,,DispreferenceFirst,dispreferenceFirst,-1.0298661174047374,,,,,971,dikeb,,174610,,,Voicing,393,b,Final,,
894,,DispreferenceFirst,dispreferenceFirst,-0.4180602006688963,,,,,2392,bikupe,,249446,,,Devoicing,917,p,NonFinal,,
718,,DispreferenceFirst,dispreferenceFirst_inverse,-1.0131712259371835,,,,,987,gutob,,189719,,,Voicing,741,b,Final,,
617,,DispreferenceFirst,dispreferenceFirst,-0.7581501137225171,,,,,1319,dokube,,596442,,,Voicing,640,b,NonFinal,,
148,,DispreferenceFirst,dispreferenceFirst,-0.9852216748768473,,,,,1015,pidob,,306728,,,Voicing,171,b,Final,,
453,,DispreferenceFirst,dispreferenceFirst,-0.8787346221441125,,,,,1138,gotepe,,310035,,,Devoicing,476,p,NonFinal,,
144,,DispreferenceFirst,dispreferenceFirst,-0.6557377049180327,,,,,1525,dokupe,,300249,,,Devoicing,167,p,NonFinal,,
1105,,DispreferenceFirst,dispreferenceFirst,-0.5053057099545225,,,,,1979,dogip,,673248,,,Devoicing,1128,p,Final,,
208,,DispreferenceFirst,dispreferenceFirst,-0.3988831272437176,,,,,2507,bikup,,408639,,,Devoicing,231,p,Final,,
872,,DispreferenceFirst,dispreferenceFirst,-0.4357298474945534,,,,,2295,bogepe,,208642,,,Devoicing,895,p,NonFinal,,
47,,DispreferenceFirst,dispreferenceFirst,-0.7369196757553427,,,,,1357,gutope,,150717,,,Devoicing,70,p,NonFinal,,
126,,DispreferenceFirst,dispreferenceFirst,-1.0214504596527068,,,,,979,todub,,272694,,,Voicing,149,b,Final,,
432,,DispreferenceFirst,dispreferenceFirst,-0.8169934640522876,,,,,1224,dokupe,,283330,,,Devoicing,455,p,NonFinal,,
982,,DispreferenceFirst,dispreferenceFirst,-0.35880875493362036,,,,,2787,,,394119,,,Devoicing,1005,,Final,,
254,,DispreferenceFirst,dispreferenceFirst,-0.4719207173194903,,,,,2119,dokube,,487625,,,Voicing,277,b,NonFinal,,
379,,DispreferenceFirst,dispreferenceFirst,-0.7299270072992701,,,,,1370,gotepe,,186458,,,Devoicing,402,p,NonFinal,,
399,,DispreferenceFirst,dispreferenceFirst,-0.8045052292839904,,,,,1243,todipe,,231150,,,Devoicing,422,p,NonFinal,,
45,,DispreferenceFirst,dispreferenceFirst,-0.7209805335255948,,,,,1387,tekupe,,148107,,,Devoicing,68,p,NonFinal,,
75,,DispreferenceFirst,dispreferenceFirst,-0.5747126436781609,,,,,1740,tekupe,,194329,,,Devoicing,98,p,NonFinal,,
238,,DispreferenceFirst,dispreferenceFirst,-0.78125,,,,,1280,tekup,,462799,,,Devoicing,261,p,Final,,
759,,DispreferenceFirst,dispreferenceFirst_inverse,-0.8488964346349746,,,,,1178,bogeb,,256936,,,Voicing,782,b,Final,,
1114,,DispreferenceFirst,dispreferenceFirst,-0.44365572315882873,,,,,2254,,,689025,,,Devoicing,1137,,Final,,
1097,,DispreferenceFirst,dispreferenceFirst,-0.48614487117160915,,,,,2057,pidop,,655871,,,Devoicing,1120,p,Final,,
246,,DispreferenceFirst,dispreferenceFirst,-0.7496251874062968,,,,,1334,gotep,,473937,,,Devoicing,269,p,Final,,
387,,DispreferenceFirst,dispreferenceFirst,-0.8264462809917356,,,,,1210,todupe,,197566,,,Devoicing,410,p,NonFinal,,
255,,DispreferenceFirst,dispreferenceFirst,-0.8904719501335708,,,,,1123,bugip,,488904,,,Devoicing,278,p,Final,,
55,,DispreferenceFirst,dispreferenceFirst,-1.0319917440660475,,,,,969,gutob,,161634,,,Voicing,78,b,Final,,
1159,,DispreferenceFirst,dispreferenceFirst,-0.8417508417508418,,,,,1188,bidobe,,761842,,,Voicing,1182,b,NonFinal,,
93,,DispreferenceFirst,dispreferenceFirst,-0.7627765064836003,,,,,1311,dogipe,,222173,,,Devoicing,116,p,NonFinal,,
449,,DispreferenceFirst,dispreferenceFirst,-0.8665511265164645,,,,,1154,potipe,,304496,,,Devoicing,472,p,NonFinal,,
300,,DispreferenceFirst,dispreferenceFirst,-0.851063829787234,,,,,1175,degop,,565230,,,Devoicing,323,p,Final,,
1155,,DispreferenceFirst,dispreferenceFirst,-0.4725897920604915,,,,,2116,degop,,756014,,,Devoicing,1178,p,Final,,
1145,,DispreferenceFirst,dispreferenceFirst,-0.9057971014492754,,,,,1104,dogip,,740016,,,Devoicing,1168,p,Final,,
873,,DispreferenceFirst,dispreferenceFirst,-0.4142502071251036,,,,,2414,dikeb,,211212,,,Voicing,896,b,Final,,
1119,,DispreferenceFirst,dispreferenceFirst,-0.7396449704142012,,,,,1352,degobe,,698943,,,Voicing,1142,b,NonFinal,,
350,,DispreferenceFirst,dispreferenceFirst,-0.8445945945945946,,,,,1184,potib,,137267,,,Voicing,373,b,Final,,
762,,DispreferenceFirst,dispreferenceFirst_inverse,-0.7256894049346879,,,,,1378,todub,,261625,,,Voicing,785,b,Final,,
452,,DispreferenceFirst,dispreferenceFirst,-0.7824726134585289,,,,,1278,todupe,,308755,,,Devoicing,475,p,NonFinal,,
240,,DispreferenceFirst,dispreferenceFirst,-0.8802816901408451,,,,,1136,dokup,,465289,,,Devoicing,263,p,Final,,
556,,DispreferenceFirst,dispreferenceFirst,-0.9337068160597572,,,,,1071,pidop,,493411,,,Devoicing,579,p,Final,,
34,,DispreferenceFirst,dispreferenceFirst,-0.7830853563038371,,,,,1277,pigepe,,131930,,,Devoicing,57,p,NonFinal,,
498,,DispreferenceFirst,dispreferenceFirst,-0.45599635202918376,,,,,2193,todibe,,389291,,,Voicing,521,b,NonFinal,,
390,,DispreferenceFirst,dispreferenceFirst,-0.9049773755656109,,,,,1105,bikub,,201425,,,Voicing,413,b,Final,,
687,,DispreferenceFirst,dispreferenceFirst_inverse,-0.4859086491739553,,,,,2058,bugib,,131130,,,Voicing,710,b,Final,,
997,,DispreferenceFirst,dispreferenceFirst,-0.8695652173913043,,,,,1150,todipe,,423904,,,Devoicing,1020,p,NonFinal,,
237,,DispreferenceFirst,dispreferenceFirst,-0.779423226812159,,,,,1283,bidop,,461360,,,Devoicing,260,p,Final,,
665,,DispreferenceFirst,dispreferenceFirst_inverse,-1.1185682326621924,,,,,894,crab,,86808,,,Voicing,688,b,Final,,
169,,DispreferenceFirst,dispreferenceFirst,-0.5787037037037037,,,,,1728,dokube,,337932,,,Voicing,192,b,NonFinal,,
732,,DispreferenceFirst,dispreferenceFirst_inverse,-0.7199424046076314,,,,,1389,todipe,,211165,,,Devoicing,755,p,NonFinal,,
1009,,DispreferenceFirst,dispreferenceFirst,-0.5592841163310962,,,,,1788,pigeb,,445119,,,Voicing,1032,b,Final,,
923,,DispreferenceFirst,dispreferenceFirst,-0.8163265306122449,,,,,1225,potib,,294577,,,Voicing,946,b,Final,,
564,,DispreferenceFirst,dispreferenceFirst,-0.45871559633027525,,,,,2180,bikup,,517407,,,Devoicing,587,p,Final,,
859,,DispreferenceFirst,dispreferenceFirst,-0.6385696040868455,,,,,1566,gutope,,186076,,,Devoicing,882,p,NonFinal,,
441,,DispreferenceFirst,dispreferenceFirst,-1.1389521640091116,,,,,878,bogeb,,294658,,,Voicing,464,b,Final,,
483,,DispreferenceFirst,dispreferenceFirst,-0.9433962264150944,,,,,1060,dokupe,,355527,,,Devoicing,506,p,NonFinal,,
1069,,DispreferenceFirst,dispreferenceFirst,-0.49261083743842365,,,,,2030,potibe,,596612,,,Voicing,1092,b,NonFinal,,
565,,DispreferenceFirst,dispreferenceFirst,-0.5020080321285141,,,,,1992,bugibe,,519596,,,Voicing,588,b,NonFinal,,
1075,,DispreferenceFirst,dispreferenceFirst,-0.7067137809187279,,,,,1415,degobe,,609379,,,Voicing,1098,b,NonFinal,,
802,,DispreferenceFirst,dispreferenceFirst_inverse,-0.6527415143603134,,,,,1532,pidope,,325274,,,Devoicing,825,p,NonFinal,,
1127,,DispreferenceFirst,dispreferenceFirst,-0.794912559618442,,,,,1258,bogebe,,709811,,,Voicing,1150,b,NonFinal,,
80,,DispreferenceFirst,dispreferenceFirst,-1.1376564277588168,,,,,879,bugib,,200807,,,Voicing,103,b,Final,,
307,,DispreferenceFirst,dispreferenceFirst,-0.5834305717619603,,,,,1714,todibe,,577168,,,Voicing,330,b,NonFinal,,
267,,DispreferenceFirst,dispreferenceFirst,-0.8103727714748784,,,,,1234,bogebe,,509221,,,Voicing,290,b,NonFinal,,
184,,DispreferenceFirst,dispreferenceFirst,-0.6958942240779401,,,,,1437,potip,,362988,,,Devoicing,207,p,Final,,
142,,DispreferenceFirst,dispreferenceFirst,-0.5364806866952789,,,,,1864,degob,,296980,,,Voicing,165,b,Final,,
976,,DispreferenceFirst,dispreferenceFirst,-0.9025270758122743,,,,,1108,potipe,,385090,,,Devoicing,999,p,NonFinal,,
533,,DispreferenceFirst,dispreferenceFirst,-0.7092198581560284,,,,,1410,pigebe,,456498,,,Voicing,556,b,NonFinal,,
68,,DispreferenceFirst,dispreferenceFirst,-0.922509225092251,,,,,1084,potib,,183300,,,Voicing,91,b,Final,,
383,,DispreferenceFirst,dispreferenceFirst,-0.8865248226950354,,,,,1128,todib,,192057,,,Voicing,406,b,Final,,
388,,DispreferenceFirst,dispreferenceFirst,-1.0,,,,,1000,pigeb,,198736,,,Voicing,411,b,Final,,
377,,DispreferenceFirst,dispreferenceFirst,-0.7423904974016332,,,,,1347,pidope,,183538,,,Devoicing,400,p,NonFinal,,
595,,DispreferenceFirst,dispreferenceFirst,-0.7818608287724785,,,,,1279,bikup,,564888,,,Devoicing,618,p,Final,,
496,,DispreferenceFirst,dispreferenceFirst,-0.6868131868131868,,,,,1456,pigebe,,385261,,,Voicing,519,b,NonFinal,,
650,,DispreferenceFirst,dispreferenceFirst,-0.9689922480620154,,,,,1032,bugip,,639874,,,Devoicing,673,p,Final,,
1180,,DispreferenceFirst,dispreferenceFirst,-0.32404406999351915,,,,,3086,,,799835,,,Devoicing,1203,,Final,,
188,,DispreferenceFirst,dispreferenceFirst,-0.40535062829347385,,,,,2467,pidop,,371966,,,Devoicing,211,p,Final,,
912,,DispreferenceFirst,dispreferenceFirst,-0.8090614886731392,,,,,1236,bidob,,276920,,,Voicing,935,b,Final,,
590,,DispreferenceFirst,dispreferenceFirst,-0.8880994671403197,,,,,1126,pidobe,,558319,,,Voicing,613,b,NonFinal,,
417,,DispreferenceFirst,dispreferenceFirst,-0.9328358208955224,,,,,1072,degob,,254745,,,Voicing,440,b,Final,,
1107,,DispreferenceFirst,dispreferenceFirst,-0.7936507936507936,,,,,1260,gutobe,,676237,,,Voicing,1130,b,NonFinal,,
682,,DispreferenceFirst,dispreferenceFirst_inverse,-0.6693440428380187,,,,,1494,potipe,,121571,,,Devoicing,705,p,NonFinal,,
256,,DispreferenceFirst,dispreferenceFirst,-0.3669724770642202,,,,,2725,potibe,,491784,,,Voicing,279,b,NonFinal,,
597,,DispreferenceFirst,dispreferenceFirst,-1.0493179433368311,,,,,953,pidobe,,567427,,,Voicing,620,b,NonFinal,,
618,,DispreferenceFirst,dispreferenceFirst,-0.8787346221441125,,,,,1138,gutobe,,597732,,,Voicing,641,b,NonFinal,,
224,,DispreferenceFirst,dispreferenceFirst,-0.3460207612456747,,,,,2890,bikube,,437404,,,Voicing,247,b,NonFinal,,
1003,,DispreferenceFirst,dispreferenceFirst,-0.5359056806002144,,,,,1866,dikeb,,433392,,,Voicing,1026,b,Final,,
1041,,DispreferenceFirst,dispreferenceFirst,-0.5614823133071308,,,,,1781,todip,,532323,,,Devoicing,1064,p,Final,,
656,,DispreferenceFirst,dispreferenceFirst,-0.8818342151675485,,,,,1134,gotep,,647753,,,Devoicing,679,p,Final,,
165,,DispreferenceFirst,dispreferenceFirst,-0.37160906726124115,,,,,2691,,,330744,,,Devoicing,188,,Final,,
187,,DispreferenceFirst,dispreferenceFirst,-0.585480093676815,,,,,1708,dikep,,369347,,,Devoicing,210,p,Final,,
918,,DispreferenceFirst,dispreferenceFirst,-0.9319664492078286,,,,,1073,pigepe,,286768,,,Devoicing,941,p,NonFinal,,
1113,,DispreferenceFirst,dispreferenceFirst,-0.922509225092251,,,,,1084,tekup,,687855,,,Devoicing,1136,p,Final,,
292,,DispreferenceFirst,dispreferenceFirst,-0.5711022272986864,,,,,1751,dogibe,,550863,,,Voicing,315,b,NonFinal,,
489,,DispreferenceFirst,dispreferenceFirst,-0.6406149903907752,,,,,1561,tekub,,363855,,,Voicing,512,b,Final,,
455,,DispreferenceFirst,dispreferenceFirst,-0.9416195856873822,,,,,1062,tekub,,312714,,,Voicing,478,b,Final,,
392,,DispreferenceFirst,dispreferenceFirst,-0.9689922480620154,,,,,1032,tekub,,203995,,,Voicing,415,b,Final,,
129,,DispreferenceFirst,dispreferenceFirst,-0.7189072609633357,,,,,1391,potib,,277084,,,Voicing,152,b,Final,,
667,,DispreferenceFirst,dispreferenceFirst_inverse,-1.0582010582010581,,,,,945,flop,,89907,,,Devoicing,690,p,Final,,
500,,DispreferenceFirst,dispreferenceFirst,-0.5382131324004306,,,,,1858,dogip,,393360,,,Devoicing,523,p,Final,,
683,,DispreferenceFirst,dispreferenceFirst_inverse,-0.5988023952095808,,,,,1670,todupe,,123391,,,Devoicing,706,p,NonFinal,,
1011,,DispreferenceFirst,dispreferenceFirst,-0.5,,,,,2000,bidope,,449189,,,Devoicing,1034,p,NonFinal,,
3,,DispreferenceFirst,dispreferenceFirst,-0.6127450980392157,,,,,1632,potib,,80319,,,Voicing,26,b,Final,,
817,,DispreferenceFirst,dispreferenceFirst_inverse,-0.7627765064836003,,,,,1311,dokupe,,348209,,,Devoicing,840,p,NonFinal,,
192,,DispreferenceFirst,dispreferenceFirst,-0.8673026886383348,,,,,1153,bikup,,380005,,,Devoicing,215,p,Final,,
29,,DispreferenceFirst,dispreferenceFirst,-0.7147962830593281,,,,,1399,bikub,,121342,,,Voicing,52,b,Final,,
1124,,DispreferenceFirst,dispreferenceFirst,-0.8733624454148472,,,,,1145,pigebe,,705512,,,Voicing,1147,b,NonFinal,,
128,,DispreferenceFirst,dispreferenceFirst,-0.7513148009015778,,,,,1331,dogipe,,275544,,,Devoicing,151,p,NonFinal,,
534,,DispreferenceFirst,dispreferenceFirst,-0.7189072609633357,,,,,1391,bogep,,458038,,,Devoicing,557,p,Final,,
1068,,DispreferenceFirst,dispreferenceFirst,-0.38804811796662786,,,,,2577,bikup,,594432,,,Devoicing,1091,p,Final,,
907,,DispreferenceFirst,dispreferenceFirst,-0.8726003490401396,,,,,1146,bogeb,,269141,,,Voicing,930,b,Final,,
1172,,DispreferenceFirst,dispreferenceFirst,-0.7451564828614009,,,,,1342,dokup,,786157,,,Devoicing,1195,p,Final,,
1132,,DispreferenceFirst,dispreferenceFirst,-0.800640512409928,,,,,1249,degop,,718450,,,Devoicing,1155,p,Final,,
419,,DispreferenceFirst,dispreferenceFirst,-0.8771929824561403,,,,,1140,todupe,,257355,,,Devoicing,442,p,NonFinal,,
648,,DispreferenceFirst,dispreferenceFirst,-0.8561643835616438,,,,,1168,gutobe,,637115,,,Voicing,671,b,NonFinal,,
890,,DispreferenceFirst,dispreferenceFirst,-0.8688097306689835,,,,,1151,gutob,,242697,,,Voicing,913,b,Final,,
725,,DispreferenceFirst,dispreferenceFirst_inverse,-0.8826125330979699,,,,,1133,bogeb,,200727,,,Voicing,748,b,Final,,
207,,DispreferenceFirst,dispreferenceFirst,-0.779423226812159,,,,,1283,todibe,,405980,,,Voicing,230,b,NonFinal,,
1147,,DispreferenceFirst,dispreferenceFirst,-0.43917435221783047,,,,,2277,,,742445,,,Devoicing,1170,,Final,,
967,,DispreferenceFirst,dispreferenceFirst,-0.7905138339920948,,,,,1265,dokupe,,370633,,,Devoicing,990,p,NonFinal,,
677,,DispreferenceFirst,dispreferenceFirst_inverse,-0.746268656716418,,,,,1340,shape,,108484,,,Devoicing,700,p,NonFinal,,
152,,DispreferenceFirst,dispreferenceFirst,-1.0351966873706004,,,,,966,goteb,,312737,,,Voicing,175,b,Final,,
203,,DispreferenceFirst,dispreferenceFirst,-0.7293946024799417,,,,,1371,bidop,,399111,,,Devoicing,226,p,Final,,
636,,DispreferenceFirst,dispreferenceFirst,-1.0362694300518134,,,,,965,potip,,621087,,,Devoicing,659,p,Final,,
301,,DispreferenceFirst,dispreferenceFirst,-0.7855459544383346,,,,,1273,pidop,,566650,,,Devoicing,324,p,Final,,
1091,,DispreferenceFirst,dispreferenceFirst,-0.339097999321804,,,,,2949,degop,,642803,,,Devoicing,1114,p,Final,,
514,,DispreferenceFirst,dispreferenceFirst,-0.687757909215956,,,,,1454,gutobe,,416265,,,Voicing,537,b,NonFinal,,
195,,DispreferenceFirst,dispreferenceFirst,-0.66711140760507,,,,,1499,bogep,,385714,,,Devoicing,218,p,Final,,
287,,DispreferenceFirst,dispreferenceFirst,-0.6349206349206349,,,,,1575,todube,,541145,,,Voicing,310,b,NonFinal,,
578,,DispreferenceFirst,dispreferenceFirst,-0.9267840593141798,,,,,1079,potibe,,540982,,,Voicing,601,b,NonFinal,,
286,,DispreferenceFirst,dispreferenceFirst,-0.9746588693957114,,,,,1026,todip,,539405,,,Devoicing,309,p,Final,,
1034,,DispreferenceFirst,dispreferenceFirst,-0.4084967320261438,,,,,2448,degop,,513147,,,Devoicing,1057,p,Final,,
448,,DispreferenceFirst,dispreferenceFirst,-1.3157894736842106,,,,,760,pidob,,303036,,,Voicing,471,b,Final,,
734,,DispreferenceFirst,dispreferenceFirst_inverse,-0.8361204013377926,,,,,1196,pigepe,,214514,,,Devoicing,757,p,NonFinal,,
977,,DispreferenceFirst,dispreferenceFirst,-0.8650519031141869,,,,,1156,dikepe,,386560,,,Devoicing,1000,p,NonFinal,,
622,,DispreferenceFirst,dispreferenceFirst,-0.9852216748768473,,,,,1015,bogebe,,602971,,,Voicing,645,b,NonFinal,,
830,,DispreferenceFirst,dispreferenceFirst_inverse,-0.7980845969672785,,,,,1253,dogipe,,372755,,,Devoicing,853,p,NonFinal,,
996,,DispreferenceFirst,dispreferenceFirst,-0.8748906386701663,,,,,1143,todub,,422593,,,Voicing,1019,b,Final,,
1048,,DispreferenceFirst,dispreferenceFirst,-0.2910360884749709,,,,,3436,,,546142,,,Devoicing,1071,,Final,,
531,,DispreferenceFirst,dispreferenceFirst,-0.9891196834817013,,,,,1011,pigep,,453608,,,Devoicing,554,p,Final,,
83,,DispreferenceFirst,dispreferenceFirst,-0.5022601707684581,,,,,1991,pidob,,206057,,,Voicing,106,b,Final,,
862,,DispreferenceFirst,dispreferenceFirst,-0.7733952049497294,,,,,1293,goteb,,190496,,,Voicing,885,b,Final,,
789,,DispreferenceFirst,dispreferenceFirst_inverse,-0.929368029739777,,,,,1076,bikub,,307237,,,Voicing,812,b,Final,,