,expt_id,Group,group_id,invRT,Trial,participant_id,response_correct,response_name,response_rt,stimuli_presented,trial_template,trial_duration,PartBlocks,AllBlocks,Pattern,trial_num,PB,Final,Part,Correct
1060,,DispreferenceFirst,dispreferenceFirst,-0.5417118093174431,,,,,1846,tekube,,575796,,,Voicing,1083,b,NonFinal,,
1176,,DispreferenceFirst,dispreferenceFirst,-0.693000693000693,,,,,1443,pidop,,793397,,,Devoicing,1199,p,Final,,
176,,DispreferenceFirst,dispreferenceFirst,-0.6468305304010349,,,,,1546,tekup,,348670,,,Devoicing,199,p,Final,,
626,,DispreferenceFirst,dispreferenceFirst,-0.9216589861751152,,,,,1085,tekup,,608550,,,Devoicing,649,p,Final,,
833,,DispreferenceFirst,dispreferenceFirst_inverse,-0.7230657989877078,,,,,1383,gutope,,377444,,,Devoicing,856,p,NonFinal,,
454,,DispreferenceFirst,dispreferenceFirst,-0.8756567425569177,,,,,1142,dikepe,,311415,,,Devoicing,477,p,NonFinal,,
644,,DispreferenceFirst,dispreferenceFirst,-0.9319664492078286,,,,,1073,todube,,632165,,,Voicing,667,b,NonFinal,,
415,,DispreferenceFirst,dispreferenceFirst,-0.9276437847866419,,,,,1078,goteb,,252426,,,Voicing,438,b,Final,,
161,,DispreferenceFirst,dispreferenceFirst,-1.0810810810810811,,,,,925,dokub,,324515,,,Voicing,184,b,Final,,
513,,DispreferenceFirst,dispreferenceFirst,-0.32894736842105265,,,,,3040,pidobe,,414636,,,Voicing,536,b,NonFinal,,
1072,,DispreferenceFirst,dispreferenceFirst,-0.5621135469364812,,,,,1779,todup,,602930,,,Devoicing,1095,p,Final,,
554,,DispreferenceFirst,dispreferenceFirst,-0.8547008547008547,,,,,1170,degobe,,490562,,,Voicing,577,b,NonFinal,,
522,,DispreferenceFirst,dispreferenceFirst,-0.7905138339920948,,,,,1265,degop,,427813,,,Devoicing,545,p,Final,,
276,,DispreferenceFirst,dispreferenceFirst,-0.778816199376947,,,,,1284,gutop,,523598,,,Devoicing,299,p,Final,,
92,,DispreferenceFirst,dispreferenceFirst,-0.41169205434335115,,,,,2429,bugipe,,220674,,,Devoicing,115,p,NonFinal,,
855,,DispreferenceFirst,dispreferenceFirst,-0.397456279809221,,,,,2516,gutob,,178498,,,Voicing,878,b,Final,,
336,,DispreferenceFirst,dispreferenceFirst,-0.7309941520467836,,,,,1368,dokupe,,117871,,,Devoicing,359,p,NonFinal,,
258,,DispreferenceFirst,dispreferenceFirst,-0.7342143906020558,,,,,1362,tekube,,494843,,,Voicing,281,b,NonFinal,,
329,,DispreferenceFirst,dispreferenceFirst,-0.6414368184733804,,,,,1559,bidop,,616011,,,Devoicing,352,p,Final,,
451,,DispreferenceFirst,dispreferenceFirst,-0.8976660682226212,,,,,1114,pigeb,,307335,,,Voicing,474,b,Final,,
25,,DispreferenceFirst,dispreferenceFirst,-0.3835826620636747,,,,,2607,dogib,,114623,,,Voicing,48,b,Final,,
826,,DispreferenceFirst,dispreferenceFirst_inverse,-0.7178750897343862,,,,,1393,todib,,364806,,,Voicing,849,b,Final,,
468,,DispreferenceFirst,dispreferenceFirst,-0.724112961622013,,,,,1381,pidope,,336070,,,Devoicing,491,p,NonFinal,,
1029,,DispreferenceFirst,dispreferenceFirst,-0.42140750105351876,,,,,2373,tekup,,499489,,,Devoicing,1052,p,Final,,
691,,DispreferenceFirst,dispreferenceFirst_inverse,-0.8257638315441783,,,,,1211,bikub,,137278,,,Voicing,714,b,Final,,
178,,DispreferenceFirst,dispreferenceFirst,-0.794912559618442,,,,,1258,todibe,,351320,,,Voicing,201,b,NonFinal,,
1139,,DispreferenceFirst,dispreferenceFirst,-0.6082725060827251,,,,,1644,dokube,,731338,,,Voicing,1162,b,NonFinal,,
701,,DispreferenceFirst,dispreferenceFirst_inverse,-0.5197505197505198,,,,,1924,dikepe,,152296,,,Devoicing,724,p,NonFinal,,
658,,DispreferenceFirst,dispreferenceFirst,-0.9587727708533078,,,,,1043,dikep,,650192,,,Devoicing,681,p,Final,,
770,,DispreferenceFirst,dispreferenceFirst_inverse,-0.5970149253731343,,,,,1675,gutope,,275233,,,Devoicing,793,p,NonFinal,,
772,,DispreferenceFirst,dispreferenceFirst_inverse,-0.7674597083653109,,,,,1303,bidope,,278012,,,Devoicing,795,p,NonFinal,,
221,,DispreferenceFirst,dispreferenceFirst,-0.6013229104028863,,,,,1663,bugip,,431555,,,Devoicing,244,p,Final,,
364,,DispreferenceFirst,dispreferenceFirst,-0.7331378299120235,,,,,1364,bugipe,,166112,,,Devoicing,387,p,NonFinal,,
1018,,DispreferenceFirst,dispreferenceFirst,-0.2420135527589545,,,,,4132,gotebe,,466187,,,Voicing,1041,b,NonFinal,,
250,,DispreferenceFirst,dispreferenceFirst,-0.5249343832020997,,,,,1905,dogibe,,480266,,,Voicing,273,b,NonFinal,,
315,,DispreferenceFirst,dispreferenceFirst,-0.7352941176470589,,,,,1360,potibe,,589916,,,Voicing,338,b,NonFinal,,
1040,,DispreferenceFirst,dispreferenceFirst,-0.34782608695652173,,,,,2875,pigebe,,530354,,,Voicing,1063,b,NonFinal,,
741,,DispreferenceFirst,dispreferenceFirst_inverse,-0.7751937984496124,,,,,1290,dogipe,,224862,,,Devoicing,764,p,NonFinal,,
972,,DispreferenceFirst,dispreferenceFirst,-0.7457121551081283,,,,,1341,pidope,,380001,,,Devoicing,995,p,NonFinal,,
645,,DispreferenceFirst,dispreferenceFirst,-0.9140767824497258,,,,,1094,gutop,,633575,,,Devoicing,668,p,Final,,
1088,,DispreferenceFirst,dispreferenceFirst,-0.5668934240362812,,,,,1764,bugibe,,635035,,,Voicing,1111,b,NonFinal,,
123,,DispreferenceFirst,dispreferenceFirst,-0.777000777000777,,,,,1287,tekupe,,267965,,,Devoicing,146,p,NonFinal,,
365,,DispreferenceFirst,dispreferenceFirst,-0.777000777000777,,,,,1287,bugib,,167541,,,Voicing,388,b,Final,,
1112,,DispreferenceFirst,dispreferenceFirst,-0.819000819000819,,,,,1221,bikube,,686605,,,Voicing,1135,b,NonFinal,,
917,,DispreferenceFirst,dispreferenceFirst,-0.4004805766920304,,,,,2497,dikepe,,285498,,,Devoicing,940,p,NonFinal,,
933,,DispreferenceFirst,dispreferenceFirst,-0.6887052341597796,,,,,1452,dokupe,,310004,,,Devoicing,956,p,NonFinal,,
939,,DispreferenceFirst,dispreferenceFirst,-0.9433962264150944,,,,,1060,gutob,,320722,,,Voicing,962,b,Final,,
1086,,DispreferenceFirst,dispreferenceFirst,-0.45392646391284613,,,,,2203,bidobe,,630826,,,Voicing,1109,b,NonFinal,,
887,,DispreferenceFirst,dispreferenceFirst,-0.8710801393728222,,,,,1148,todupe,,238647,,,Devoicing,910,p,NonFinal,,
85,,DispreferenceFirst,dispreferenceFirst,-0.8410428931875525,,,,,1189,todupe,,209036,,,Devoicing,108,p,NonFinal,,
209,,DispreferenceFirst,dispreferenceFirst,-0.9881422924901185,,,,,1012,dokup,,409869,,,Devoicing,232,p,Final,,
811,,DispreferenceFirst,dispreferenceFirst_inverse,-0.8305647840531561,,,,,1204,gutope,,336901,,,Devoicing,834,p,NonFinal,,
594,,DispreferenceFirst,dispreferenceFirst,-0.4144218814753419,,,,,2413,,,563428,,,Devoicing,617,,Final,,
1090,,DispreferenceFirst,dispreferenceFirst,-0.4670714619336759,,,,,2141,bugip,,639664,,,Devoicing,1113,p,Final,,
845,,DispreferenceFirst,dispreferenceFirst_inverse,-0.1775883502042266,,,,,5631,,,397780,,,Devoicing,868,,Final,,
359,,DispreferenceFirst,dispreferenceFirst,-0.8271298593879239,,,,,1209,gutope,,149895,,,Devoicing,382,p,NonFinal,,
220,,DispreferenceFirst,dispreferenceFirst,-0.5871990604815033,,,,,1703,bogebe,,429725,,,Voicing,243,b,NonFinal,,
289,,DispreferenceFirst,dispreferenceFirst,-0.42955326460481097,,,,,2328,todup,,545174,,,Devoicing,312,p,Final,,
88,,DispreferenceFirst,dispreferenceFirst,-0.6729475100942126,,,,,1486,bidope,,213905,,,Devoicing,111,p,NonFinal,,
403,,DispreferenceFirst,dispreferenceFirst,-0.7830853563038371,,,,,1277,bidope,,236979,,,Devoicing,426,p,NonFinal,,
290,,DispreferenceFirst,dispreferenceFirst,-0.5807200929152149,,,,,1722,degobe,,547084,,,Voicing,313,b,NonFinal,,
18,,DispreferenceFirst,dispreferenceFirst,-0.7898894154818326,,,,,1266,potipe,,103665,,,Devoicing,41,p,NonFinal,,
1165,,DispreferenceFirst,dispreferenceFirst,-0.6042296072507553,,,,,1655,dikebe,,775359,,,Voicing,1188,b,NonFinal,,
166,,DispreferenceFirst,dispreferenceFirst,-0.5070993914807302,,,,,1972,gotebe,,332993,,,Voicing,189,b,NonFinal,,
1120,,DispreferenceFirst,dispreferenceFirst,-0.7961783439490446,,,,,1256,pidobe,,700353,,,Voicing,1143,b,NonFinal,,
1135,,DispreferenceFirst,dispreferenceFirst,-0.4928536224741252,,,,,2029,todube,,723729,,,Voicing,1158,b,NonFinal,,
1179,,DispreferenceFirst,dispreferenceFirst,-0.7836990595611285,,,,,1276,todup,,798025,,,Devoicing,1202,p,Final,,
1170,,DispreferenceFirst,dispreferenceFirst,-0.6523157208088715,,,,,1533,todube,,783048,,,Voicing,1193,b,NonFinal,,
589,,DispreferenceFirst,dispreferenceFirst,-0.8453085376162299,,,,,1183,degobe,,556989,,,Voicing,612,b,NonFinal,,
1015,,DispreferenceFirst,dispreferenceFirst,-0.3286230693394676,,,,,3043,,,455717,,,Devoicing,1038,,Final,,
783,,DispreferenceFirst,dispreferenceFirst_inverse,-0.9009009009009009,,,,,1110,goteb,,299128,,,Voicing,806,b,Final,,
553,,DispreferenceFirst,dispreferenceFirst,-0.5555555555555556,,,,,1800,bugibe,,489192,,,Voicing,576,b,NonFinal,,
328,,DispreferenceFirst,dispreferenceFirst,-0.7067137809187279,,,,,1415,dikebe,,614301,,,Voicing,351,b,NonFinal,,
916,,DispreferenceFirst,dispreferenceFirst,-0.3835826620636747,,,,,2607,,,282779,,,Devoicing,939,,Final,,
116,,DispreferenceFirst,dispreferenceFirst,-0.6896551724137931,,,,,1450,gutope,,257467,,,Devoicing,139,p,NonFinal,,
793,,DispreferenceFirst,dispreferenceFirst_inverse,-0.757002271006813,,,,,1321,todipe,,312556,,,Devoicing,816,p,NonFinal,,
580,,DispreferenceFirst,dispreferenceFirst,-0.929368029739777,,,,,1076,todip,,543642,,,Devoicing,603,p,Final,,
1051,,DispreferenceFirst,dispreferenceFirst,-0.40290088638195004,,,,,2482,pigep,,553769,,,Devoicing,1074,p,Final,,
1005,,DispreferenceFirst,dispreferenceFirst,-0.38138825324180015,,,,,2622,pidope,,437951,,,Devoicing,1028,p,NonFinal,,
249,,DispreferenceFirst,dispreferenceFirst,-0.7824726134585289,,,,,1278,bikup,,478197,,,Devoicing,272,p,Final,,
275,,DispreferenceFirst,dispreferenceFirst,-0.6711409395973155,,,,,1490,pidop,,522148,,,Devoicing,298,p,Final,,
462,,DispreferenceFirst,dispreferenceFirst,-0.12514078338130397,,,,,7991,,,327702,,,Devoicing,485,,Final,,
702,,DispreferenceFirst,dispreferenceFirst_inverse,-0.49776007964161273,,,,,2009,bidope,,154475,,,Devoicing,725,p,NonFinal,,
693,,DispreferenceFirst,dispreferenceFirst_inverse,-0.7581501137225171,,,,,1319,degope,,139948,,,Devoicing,716,p,NonFinal,,
173,,DispreferenceFirst,dispreferenceFirst,-0.5546311702717692,,,,,1803,gotep,,343642,,,Devoicing,196,p,Final,,
252,,DispreferenceFirst,dispreferenceFirst,-0.5959475566150179,,,,,1678,gotebe,,483496,,,Voicing,275,b,NonFinal,,
512,,DispreferenceFirst,dispreferenceFirst,-0.8680555555555556,,,,,1152,bugip,,411436,,,Devoicing,535,p,Final,,
70,,DispreferenceFirst,dispreferenceFirst,-0.7898894154818326,,,,,1266,pigeb,,186650,,,Voicing,93,b,Final,,
109,,DispreferenceFirst,dispreferenceFirst,-0.5865102639296188,,,,,1705,pidope,,246009,,,Devoicing,132,p,NonFinal,,
628,,DispreferenceFirst,dispreferenceFirst,-1.0638297872340425,,,,,940,dokup,,611119,,,Devoicing,651,p,Final,,
1111,,DispreferenceFirst,dispreferenceFirst,-0.6915629322268326,,,,,1446,todibe,,685226,,,Voicing,1134,b,NonFinal,,
763,,DispreferenceFirst,dispreferenceFirst_inverse,-0.8503401360544217,,,,,1176,bikub,,262955,,,Voicing,786,b,Final,,
1118,,DispreferenceFirst,dispreferenceFirst,-0.42140750105351876,,,,,2373,gutobe,,697403,,,Voicing,1141,b,NonFinal,,
1095,,DispreferenceFirst,dispreferenceFirst,-0.5091649694501018,,,,,1964,todube,,651632,,,Voicing,1118,b,NonFinal,,
566,,DispreferenceFirst,dispreferenceFirst,-0.8944543828264758,,,,,1118,gotep,,520856,,,Devoicing,589,p,Final,,
788,,DispreferenceFirst,dispreferenceFirst_inverse,-0.7062146892655368,,,,,1416,tekub,,306017,,,Voicing,811,b,Final,,
443,,DispreferenceFirst,dispreferenceFirst,-0.819000819000819,,,,,1221,degope,,297147,,,Devoicing,466,p,NonFinal,,
729,,DispreferenceFirst,dispreferenceFirst_inverse,-0.6218905472636815,,,,,1608,bugipe,,206716,,,Devoicing,752,p,NonFinal,,
756,,DispreferenceFirst,dispreferenceFirst_inverse,-0.6345177664974619,,,,,1576,todupe,,252227,,,Devoicing,779,p,NonFinal,,
927,,DispreferenceFirst,dispreferenceFirst,-0.6978367062107467,,,,,1433,bikub,,300346,,,Voicing,950,b,Final,,
475,,DispreferenceFirst,dispreferenceFirst,-1.0050251256281406,,,,,995,pigeb,,345769,,,Voicing,498,b,Final,,
281,,DispreferenceFirst,dispreferenceFirst,-0.6153846153846154,,,,,1625,bugip,,532046,,,Devoicing,304,p,Final,,
247,,DispreferenceFirst,dispreferenceFirst,-0.9124087591240876,,,,,1096,gutobe,,475177,,,Voicing,270,b,NonFinal,,
97,,DispreferenceFirst,dispreferenceFirst,-1.0905125408942202,,,,,917,bidob,,227452,,,Voicing,120,b,Final,,
807,,DispreferenceFirst,dispreferenceFirst_inverse,-0.832639467110741,,,,,1201,degob,,331902,,,Voicing,830,b,Final,,
1065,,DispreferenceFirst,dispreferenceFirst,-0.29770765108663294,,,,,3359,potip,,587554,,,Devoicing,1088,p,Final,,
676,,DispreferenceFirst,dispreferenceFirst_inverse,-0.9115770282588879,,,,,1097,scuba,,106524,,,Voicing,699,b,NonFinal,,
686,,DispreferenceFirst,dispreferenceFirst_inverse,-0.7558578987150416,,,,,1323,pigepe,,128900,,,Devoicing,709,p,NonFinal,,
140,,DispreferenceFirst,dispreferenceFirst,-0.8896797153024911,,,,,1124,potib,,293151,,,Voicing,163,b,Final,,
1020,,DispreferenceFirst,dispreferenceFirst,-0.4001600640256102,,,,,2499,dikep,,474264,,,Devoicing,1043,p,Final,,
803,,DispreferenceFirst,dispreferenceFirst_inverse,-0.832639467110741,,,,,1201,degope,,326623,,,Devoicing,826,p,NonFinal,,
863,,DispreferenceFirst,dispreferenceFirst,-0.7283321194464676,,,,,1373,bidope,,192025,,,Devoicing,886,p,NonFinal,,
853,,DispreferenceFirst,dispreferenceFirst,-0.44385264092321347,,,,,2253,tekub,,173419,,,Voicing,876,b,Final,,
848,,DispreferenceFirst,dispreferenceFirst_inverse,-0.15186028853454822,,,,,6585,,,567619,,,Devoicing,871,,Final,,
235,,DispreferenceFirst,dispreferenceFirst,-0.7886435331230284,,,,,1268,degobe,,458190,,,Voicing,258,b,NonFinal,,
410,,DispreferenceFirst,dispreferenceFirst,-0.6684491978609626,,,,,1496,potib,,246657,,,Voicing,433,b,Final,,
1131,,DispreferenceFirst,dispreferenceFirst,-0.7524454477050414,,,,,1329,todibe,,717050,,,Voicing,1154,b,NonFinal,,
367,,DispreferenceFirst,dispreferenceFirst,-0.8216926869350862,,,,,1217,goteb,,170721,,,Voicing,390,b,Final,,
794,,DispreferenceFirst,dispreferenceFirst_inverse,-0.7923930269413629,,,,,1262,dokupe,,313966,,,Devoicing,817,p,NonFinal,,
663,,DispreferenceFirst,dispreferenceFirst_inverse,-1.2224938875305624,,,,,818,cob,,83568,,,Voicing,686,b,Final,,
502,,DispreferenceFirst,dispreferenceFirst,-0.746268656716418,,,,,1340,pidop,,396549,,,Devoicing,525,p,Final,,
1054,,DispreferenceFirst,dispreferenceFirst,-0.4065040650406504,,,,,2460,dogip,,561728,,,Devoicing,1077,p,Final,,
723,,DispreferenceFirst,dispreferenceFirst_inverse,-0.6788866259334692,,,,,1473,bikupe,,197817,,,Devoicing,746,p,NonFinal,,
232,,DispreferenceFirst,dispreferenceFirst,-0.4782400765184122,,,,,2091,bikube,,453511,,,Voicing,255,b,NonFinal,,
746,,DispreferenceFirst,dispreferenceFirst_inverse,-0.12941633234114144,,,,,7727,,,237360,,,Devoicing,769,,Final,,
685,,DispreferenceFirst,dispreferenceFirst_inverse,-0.5027652086475616,,,,,1989,bikupe,,127360,,,Devoicing,708,p,NonFinal,,
7,,DispreferenceFirst,dispreferenceFirst,-0.6150061500615006,,,,,1626,bikupe,,86888,,,Devoicing,30,p,NonFinal,,
400,,DispreferenceFirst,dispreferenceFirst,-0.8481764206955047,,,,,1179,bidob,,232499,,,Voicing,423,b,Final,,
401,,DispreferenceFirst,dispreferenceFirst,-0.7446016381236039,,,,,1343,pidope,,233999,,,Devoicing,424,p,NonFinal,,
1094,,DispreferenceFirst,dispreferenceFirst,-0.6176652254478073,,,,,1619,gotep,,649512,,,Devoicing,1117,p,Final,,
1153,,DispreferenceFirst,dispreferenceFirst,-0.800640512409928,,,,,1249,gotep,,752384,,,Devoicing,1176,p,Final,,
821,,DispreferenceFirst,dispreferenceFirst_inverse,-0.56657223796034,,,,,1765,bugib,,354348,,,Voicing,844,b,Final,,
411,,DispreferenceFirst,dispreferenceFirst,-0.9940357852882704,,,,,1006,gutob,,247807,,,Voicing,434,b,Final,,
814,,DispreferenceFirst,dispreferenceFirst_inverse,-1.0427528675703859,,,,,959,dokub,,344370,,,Voicing,837,b,Final,,
309,,DispreferenceFirst,dispreferenceFirst,-0.5602240896358543,,,,,1785,bikube,,580738,,,Voicing,332,b,NonFinal,,
815,,DispreferenceFirst,dispreferenceFirst_inverse,-1.0405827263267429,,,,,961,pidob,,345480,,,Voicing,838,b,Final,,
124,,DispreferenceFirst,dispreferenceFirst,-0.7818608287724785,,,,,1279,bidope,,269405,,,Devoicing,147,p,NonFinal,,
818,,DispreferenceFirst,dispreferenceFirst_inverse,-0.6157635467980296,,,,,1624,bugipe,,349979,,,Devoicing,841,p,NonFinal,,
99,,DispreferenceFirst,dispreferenceFirst,-0.2644802962179318,,,,,3781,,,231392,,,Devoicing,122,,Final,,
199,,DispreferenceFirst,dispreferenceFirst,-0.6557377049180327,,,,,1525,dogip,,391653,,,Devoicing,222,p,Final,,
374,,DispreferenceFirst,dispreferenceFirst,-0.8084074373484236,,,,,1237,tekupe,,179529,,,Devoicing,397,p,NonFinal,,
567,,DispreferenceFirst,dispreferenceFirst,-0.5396654074473827,,,,,1853,bogebe,,522866,,,Voicing,590,b,NonFinal,,
473,,DispreferenceFirst,dispreferenceFirst,-0.7955449482895783,,,,,1257,tekupe,,343039,,,Devoicing,496,p,NonFinal,,
913,,DispreferenceFirst,dispreferenceFirst,-0.8688097306689835,,,,,1151,goteb,,278220,,,Voicing,936,b,Final,,
1163,,DispreferenceFirst,dispreferenceFirst,-0.3141690229343387,,,,,3183,tekup,,771510,,,Devoicing,1186,p,Final,,
89,,DispreferenceFirst,dispreferenceFirst,-0.7320644216691069,,,,,1366,degope,,215425,,,Devoicing,112,p,NonFinal,,
296,,DispreferenceFirst,dispreferenceFirst,-0.8984725965858041,,,,,1113,tekup,,557242,,,Devoicing,319,p,Final,,
391,,DispreferenceFirst,dispreferenceFirst,-0.8169934640522876,,,,,1224,bogepe,,202815,,,Devoicing,414,p,NonFinal,,
386,,DispreferenceFirst,dispreferenceFirst,-0.8084074373484236,,,,,1237,todipe,,196166,,,Devoicing,409,p,NonFinal,,
406,,DispreferenceFirst,dispreferenceFirst,-0.8598452278589854,,,,,1163,degope,,240928,,,Devoicing,429,p,NonFinal,,
737,,DispreferenceFirst,dispreferenceFirst_inverse,-0.6540222367560498,,,,,1529,tekub,,218623,,,Voicing,760,b,Final,,
525,,DispreferenceFirst,dispreferenceFirst,-0.9363295880149812,,,,,1068,dikep,,431603,,,Devoicing,548,p,Final,,
666,,DispreferenceFirst,dispreferenceFirst_inverse,-1.0526315789473684,,,,,950,crimp,,88358,,,Devoicing,689,p,Final,,
557,,DispreferenceFirst,dispreferenceFirst,-0.7662835249042146,,,,,1305,todube,,494881,,,Voicing,580,b,NonFinal,,
435,,DispreferenceFirst,dispreferenceFirst,-1.1123470522803114,,,,,899,bikub,,286919,,,Voicing,458,b,Final,,
535,,DispreferenceFirst,dispreferenceFirst,-0.7342143906020558,,,,,1362,dogibe,,459587,,,Voicing,558,b,NonFinal,,
994,,DispreferenceFirst,dispreferenceFirst,-0.38955979742890534,,,,,2567,dogib,,415275,,,Voicing,1017,b,Final,,
138,,DispreferenceFirst,dispreferenceFirst,-1.1820330969267139,,,,,846,dikeb,,289981,,,Voicing,161,b,Final,,
962,,DispreferenceFirst,dispreferenceFirst,-0.5977286312014346,,,,,1673,tekub,,362884,,,Voicing,985,b,Final,,
82,,DispreferenceFirst,dispreferenceFirst,-0.6609385327164574,,,,,1513,todib,,203917,,,Voicing,105,b,Final,,
1123,,DispreferenceFirst,dispreferenceFirst,-0.9900990099009901,,,,,1010,todup,,704212,,,Devoicing,1146,p,Final,,
427,,DispreferenceFirst,dispreferenceFirst,-0.7547169811320755,,,,,1325,bikube,,267853,,,Devoicing,450,p,NonFinal,,
306,,DispreferenceFirst,dispreferenceFirst,-0.6644518272425249,,,,,1505,potip,,575299,,,Devoicing,329,p,Final,,
787,,DispreferenceFirst,dispreferenceFirst_inverse,-0.8210180623973727,,,,,1218,bidob,,304447,,,Voicing,810,b,Final,,
640,,DispreferenceFirst,dispreferenceFirst,-0.9950248756218906,,,,,1005,bogep,,626567,,,Devoicing,663,p,Final,,
796,,DispreferenceFirst,dispreferenceFirst_inverse,-0.819672131147541,,,,,1220,bikupe,,316925,,,Devoicing,819,p,NonFinal,,
1142,,DispreferenceFirst,dispreferenceFirst,-0.7304601899196493,,,,,1369,bugibe,,736006,,,Voicing,1165,b,NonFinal,,
1019,,DispreferenceFirst,dispreferenceFirst,-0.19293845263360987,,,,,5183,bogep,,471575,,,Devoicing,1042,p,Final,,
384,,DispreferenceFirst,dispreferenceFirst,-0.7604562737642585,,,,,1315,dogipe,,193577,,,Devoicing,407,p,NonFinal,,
544,,DispreferenceFirst,dispreferenceFirst,-0.7751937984496124,,,,,1290,gutobe,,473805,,,Voicing,567,b,NonFinal,,
675,,DispreferenceFirst,dispreferenceFirst_inverse,-0.9033423667570009,,,,,1107,ripe,,104765,,,Devoicing,698,p,NonFinal,,
721,,DispreferenceFirst,dispreferenceFirst_inverse,-0.9328358208955224,,,,,1072,degob,,194668,,,Voicing,744,b,Final,,
241,,DispreferenceFirst,dispreferenceFirst,-0.8904719501335708,,,,,1123,potip,,466559,,,Devoicing,264,p,Final,,
17,,DispreferenceFirst,dispreferenceFirst,-0.8748906386701663,,,,,1143,bugib,,102245,,,Voicing,40,b,Final,,
36,,DispreferenceFirst,dispreferenceFirst,-0.7326007326007326,,,,,1365,degope,,134979,,,Devoicing,59,p,NonFinal,,
335,,DispreferenceFirst,dispreferenceFirst,-0.5973715651135006,,,,,1674,bikube,,116341,,,Devoicing,358,p,NonFinal,,
485,,DispreferenceFirst,dispreferenceFirst,-1.1806375442739079,,,,,847,dogib,,357916,,,Voicing,508,b,Final,,
1057,,DispreferenceFirst,dispreferenceFirst,-0.6038647342995169,,,,,1656,pidop,,568247,,,Devoicing,1080,p,Final,,
526,,DispreferenceFirst,dispreferenceFirst,-0.4631773969430292,,,,,2159,dikebe,,433922,,,Voicing,549,b,NonFinal,,
244,,DispreferenceFirst,dispreferenceFirst,-0.8771929824561403,,,,,1140,bogep,,470908,,,Devoicing,267,p,Final,,
822,,DispreferenceFirst,dispreferenceFirst_inverse,-0.651890482398957,,,,,1534,dikepe,,356028,,,Devoicing,845,p,NonFinal,,
1133,,DispreferenceFirst,dispreferenceFirst,-0.7251631617113851,,,,,1379,dokup,,719980,,,Devoicing,1156,p,Final,,
372,,DispreferenceFirst,dispreferenceFirst,-1.203369434416366,,,,,831,bogeb,,176660,,,Voicing,395,b,Final,,
847,,DispreferenceFirst,dispreferenceFirst_inverse,-0.14885382554331647,,,,,6718,,,517428,,,Devoicing,870,,Final,,
888,,DispreferenceFirst,dispreferenceFirst,-0.9372071227741331,,,,,1067,tekupe,,239947,,,Devoicing,911,p,NonFinal,,
260,,DispreferenceFirst,dispreferenceFirst,-0.7621951219512195,,,,,1312,gutop,,497603,,,Devoicing,283,p,Final,,
1027,,DispreferenceFirst,dispreferenceFirst,-0.4716981132075472,,,,,2120,bugibe,,493481,,,Voicing,1050,b,NonFinal,,
569,,DispreferenceFirst,dispreferenceFirst,-0.44583147570218457,,,,,2243,dogibe,,526755,,,Voicing,592,b,NonFinal,,
430,,DispreferenceFirst,dispreferenceFirst,-0.9363295880149812,,,,,1068,goteb,,280861,,,Voicing,453,b,Final,,
731,,DispreferenceFirst,dispreferenceFirst_inverse,-0.6729475100942126,,,,,1486,bikub,,209615,,,Voicing,754,b,Final,,
987,,DispreferenceFirst,dispreferenceFirst,-0.7824726134585289,,,,,1278,dikepe,,401457,,,Devoicing,1010,p,NonFinal,,
688,,DispreferenceFirst,dispreferenceFirst_inverse,-0.6493506493506493,,,,,1540,bogepe,,132839,,,Devoicing,711,p,NonFinal,,
1138,,DispreferenceFirst,dispreferenceFirst,-0.6618133686300464,,,,,1511,todip,,729527,,,Devoicing,1161,p,Final,,
414,,DispreferenceFirst,dispreferenceFirst,-0.8849557522123894,,,,,1130,pidob,,251196,,,Voicing,437,b,Final,,
189,,DispreferenceFirst,dispreferenceFirst,-0.48426150121065376,,,,,2065,dikebe,,374186,,,Voicing,212,b,NonFinal,,
141,,DispreferenceFirst,dispreferenceFirst,-0.6142506142506142,,,,,1628,bogepe,,294930,,,Devoicing,164,p,NonFinal,,
167,,DispreferenceFirst,dispreferenceFirst,-0.8032128514056225,,,,,1245,bogebe,,334403,,,Voicing,190,b,NonFinal,,
1141,,DispreferenceFirst,dispreferenceFirst,-0.6684491978609626,,,,,1496,potibe,,734466,,,Voicing,1164,b,NonFinal,,
925,,DispreferenceFirst,dispreferenceFirst,-0.8525149190110827,,,,,1173,bidob,,297387,,,Voicing,948,b,Final,,
179,,DispreferenceFirst,dispreferenceFirst,-0.7692307692307693,,,,,1300,gutobe,,352769,,,Voicing,202,b,NonFinal,,
637,,DispreferenceFirst,dispreferenceFirst,-0.7457121551081283,,,,,1341,dokube,,622587,,,Voicing,660,b,NonFinal,,
285,,DispreferenceFirst,dispreferenceFirst,-0.6891798759476223,,,,,1451,dikebe,,538226,,,Voicing,308,b,NonFinal,,
745,,DispreferenceFirst,dispreferenceFirst_inverse,-0.6954102920723226,,,,,1438,gotepe,,231071,,,Devoicing,768,p,NonFinal,,
106,,DispreferenceFirst,dispreferenceFirst,-1.0570824524312896,,,,,946,pigeb,,240940,,,Voicing,129,b,Final,,
91,,DispreferenceFirst,dispreferenceFirst,-0.8598452278589854,,,,,1163,bikub,,218094,,,Voicing,114,b,Final,,
198,,DispreferenceFirst,dispreferenceFirst,-0.4314063848144953,,,,,2318,,,389913,,,Devoicing,221,,Final,,
1025,,DispreferenceFirst,dispreferenceFirst,-0.4095004095004095,,,,,2442,dokube,,486952,,,Voicing,1048,b,NonFinal,,
555,,DispreferenceFirst,dispreferenceFirst,-0.693000693000693,,,,,1443,pidobe,,492181,,,Voicing,578,b,NonFinal,,
857,,DispreferenceFirst,dispreferenceFirst,-0.5966587112171837,,,,,1676,bikub,,182227,,,Voicing,880,b,Final,,
181,,DispreferenceFirst,dispreferenceFirst,-0.36023054755043227,,,,,2776,potibe,,357629,,,Voicing,204,b,NonFinal,,
870,,DispreferenceFirst,dispreferenceFirst,-0.7189072609633357,,,,,1391,pigepe,,204583,,,Devoicing,893,p,NonFinal,,
681,,DispreferenceFirst,dispreferenceFirst_inverse,-0.5192107995846313,,,,,1926,degob,,119912,,,Voicing,704,b,Final,,
77,,DispreferenceFirst,dispreferenceFirst,-0.946969696969697,,,,,1056,bogeb,,196858,,,Voicing,100,b,Final,,
903,,DispreferenceFirst,dispreferenceFirst,-0.693000693000693,,,,,1443,dokub,,262323,,,Voicing,926,b,Final,,
786,,DispreferenceFirst,dispreferenceFirst_inverse,-0.7320644216691069,,,,,1366,bogepe,,303078,,,Devoicing,809,p,NonFinal,,
1096,,DispreferenceFirst,dispreferenceFirst,-0.5561735261401557,,,,,1798,bogep,,653631,,,Devoicing,1119,p,Final,,
174,,DispreferenceFirst,dispreferenceFirst,-0.6207324643078833,,,,,1611,tekube,,345441,,,Voicing,197,b,NonFinal,,
956,,DispreferenceFirst,dispreferenceFirst,-0.5473453749315819,,,,,1827,pigeb,,350057,,,Voicing,979,b,Final,,
314,,DispreferenceFirst,dispreferenceFirst,-0.8340283569641368,,,,,1199,gotebe,,588406,,,Voicing,337,b,NonFinal,,
497,,DispreferenceFirst,dispreferenceFirst,-0.6779661016949152,,,,,1475,bidop,,386891,,,Devoicing,520,p,Final,,
94,,DispreferenceFirst,dispreferenceFirst,-1.017293997965412,,,,,983,dokub,,223313,,,Voicing,117,b,Final,,
797,,DispreferenceFirst,dispreferenceFirst_inverse,-0.8431703204047217,,,,,1186,tekupe,,318285,,,Devoicing,820,p,NonFinal,,
979,,DispreferenceFirst,dispreferenceFirst,-0.6480881399870383,,,,,1543,todib,,389550,,,Voicing,1002,b,Final,,
338,,DispreferenceFirst,dispreferenceFirst,-0.8496176720475785,,,,,1177,dokub,,120690,,,Voicing,361,b,Final,,
984,,DispreferenceFirst,dispreferenceFirst,-0.856898029134533,,,,,1167,pigepe,,397158,,,Devoicing,1007,p,NonFinal,,
792,,DispreferenceFirst,dispreferenceFirst_inverse,-0.916590284142988,,,,,1091,bogeb,,311086,,,Voicing,815,b,Final,,
754,,DispreferenceFirst,dispreferenceFirst_inverse,-0.8968609865470852,,,,,1115,goteb,,248948,,,Voicing,777,b,Final,,
1058,,DispreferenceFirst,dispreferenceFirst,-0.3286230693394676,,,,,3043,pidobe,,571446,,,Voicing,1081,b,NonFinal,,
995,,DispreferenceFirst,dispreferenceFirst,-0.17370158068438424,,,,,5757,pidob,,421224,,,Voicing,1018,b,Final,,
293,,DispreferenceFirst,dispreferenceFirst,-0.9746588693957114,,,,,1026,potip,,552053,,,Devoicing,316,p,Final,,
711,,DispreferenceFirst,dispreferenceFirst_inverse,-0.5012531328320802,,,,,1995,pidope,,170432,,,Devoicing,734,p,NonFinal,,
1074,,DispreferenceFirst,dispreferenceFirst,-0.36764705882352944,,,,,2720,bugip,,607770,,,Devoicing,1097,p,Final,,
113,,DispreferenceFirst,dispreferenceFirst,-0.966183574879227,,,,,1035,bugib,,251808,,,Voicing,136,b,Final,,
51,,DispreferenceFirst,dispreferenceFirst,-0.76103500761035,,,,,1314,dikepe,,155766,,,Devoicing,74,p,NonFinal,,
1116,,DispreferenceFirst,dispreferenceFirst,-0.4734848484848485,,,,,2112,dikep,,692935,,,Devoicing,1139,p,Final,,
614,,DispreferenceFirst,dispreferenceFirst,-0.8680555555555556,,,,,1152,tekube,,592493,,,Voicing,637,b,NonFinal,,
633,,DispreferenceFirst,dispreferenceFirst,-1.050420168067227,,,,,952,pigebe,,617348,,,Voicing,656,b,NonFinal,,
283,,DispreferenceFirst,dispreferenceFirst,-0.8748906386701663,,,,,1143,dikep,,535126,,,Devoicing,306,p,Final,,
1038,,DispreferenceFirst,dispreferenceFirst,-0.6203473945409429,,,,,1612,gutobe,,523675,,,Voicing,1061,b,NonFinal,,
968,,DispreferenceFirst,dispreferenceFirst,-1.016260162601626,,,,,984,dogib,,371783,,,Voicing,991,b,Final,,
110,,DispreferenceFirst,dispreferenceFirst,-0.8944543828264758,,,,,1118,bikub,,247299,,,Voicing,133,b,Final,,
100,,DispreferenceFirst,dispreferenceFirst,-0.6784260515603799,,,,,1474,todupe,,233081,,,Devoicing,123,p,NonFinal,,
810,,DispreferenceFirst,dispreferenceFirst_inverse,-1.0384215991692627,,,,,963,pidob,,335552,,,Voicing,833,b,Final,,
573,,DispreferenceFirst,dispreferenceFirst,-0.5865102639296188,,,,,1705,pidop,,532594,,,Devoicing,596,p,Final,,
586,,DispreferenceFirst,dispreferenceFirst,-0.4526935264825713,,,,,2209,todibe,,552900,,,Voicing,609,b,NonFinal,,
805,,DispreferenceFirst,dispreferenceFirst_inverse,-1.0245901639344261,,,,,976,potib,,329213,,,Voicing,828,b,Final,,
234,,DispreferenceFirst,dispreferenceFirst,-0.6188118811881188,,,,,1616,todube,,456771,,,Voicing,257,b,NonFinal,,
265,,DispreferenceFirst,dispreferenceFirst,-0.6215040397762586,,,,,1609,tekube,,506411,,,Voicing,288,b,NonFinal,,
1110,,DispreferenceFirst,dispreferenceFirst,-0.6802721088435374,,,,,1470,dikebe,,683616,,,Voicing,1133,b,NonFinal,,
1130,,DispreferenceFirst,dispreferenceFirst,-0.7662835249042146,,,,,1305,dikebe,,715550,,,Voicing,1153,b,NonFinal,,
461,,DispreferenceFirst,dispreferenceFirst,-0.8460236886632826,,,,,1182,dogib,,320893,,,Voicing,484,b,Final,,
1076,,DispreferenceFirst,dispreferenceFirst,-0.6675567423230975,,,,,1498,dokube,,611029,,,Voicing,1099,b,NonFinal,,
487,,DispreferenceFirst,dispreferenceFirst,-0.9852216748768473,,,,,1015,bugipe,,360466,,,Devoicing,510,p,NonFinal,,
239,,DispreferenceFirst,dispreferenceFirst,-0.9699321047526673,,,,,1031,todip,,463989,,,Devoicing,262,p,Final,,
471,,DispreferenceFirst,dispreferenceFirst,-1.0204081632653061,,,,,980,dikeb,,339860,,,Voicing,494,b,Final,,
474,,DispreferenceFirst,dispreferenceFirst,-0.6958942240779401,,,,,1437,dikepe,,344619,,,Devoicing,497,p,NonFinal,,
937,,DispreferenceFirst,dispreferenceFirst,-0.6273525721455459,,,,,1594,gotepe,,317943,,,Devoicing,960,p,NonFinal,,
752,,DispreferenceFirst,dispreferenceFirst_inverse,-0.9363295880149812,,,,,1068,gutob,,246148,,,Voicing,775,b,Final,,
591,,DispreferenceFirst,dispreferenceFirst,-0.9433962264150944,,,,,1060,dikebe,,559639,,,Voicing,614,b,NonFinal,,
548,,DispreferenceFirst,dispreferenceFirst,-0.8718395815170009,,,,,1147,todip,,479544,,,Devoicing,571,p,Final,,
1171,,DispreferenceFirst,dispreferenceFirst,-0.6978367062107467,,,,,1433,bikube,,784648,,,Voicing,1194,b,NonFinal,,
934,,DispreferenceFirst,dispreferenceFirst,-0.6468305304010349,,,,,1546,tekupe,,311704,,,Devoicing,957,p,NonFinal,,
559,,DispreferenceFirst,dispreferenceFirst,-43.47826086956522,,,,,23,potip,,496581,,,Devoicing,582,p,Final,,
902,,DispreferenceFirst,dispreferenceFirst,-0.7194244604316546,,,,,1390,pigepe,,260733,,,Devoicing,925,p,NonFinal,,
321,,DispreferenceFirst,dispreferenceFirst,-0.43029259896729777,,,,,2324,dokup,,602244,,,Devoicing,344,p,Final,,
98,,DispreferenceFirst,dispreferenceFirst,-0.6447453255963894,,,,,1551,bikupe,,229162,,,Devoicing,121,p,NonFinal,,
1043,,DispreferenceFirst,dispreferenceFirst,-0.39603960396039606,,,,,2525,todibe,,537332,,,Voicing,1066,b,NonFinal,,
764,,DispreferenceFirst,dispreferenceFirst_inverse,-0.697350069735007,,,,,1434,dogib,,264545,,,Voicing,787,b,Final,,
552,,DispreferenceFirst,dispreferenceFirst,-0.4750593824228028,,,,,2105,gotebe,,487212,,,Voicing,575,b,NonFinal,,
795,,DispreferenceFirst,dispreferenceFirst_inverse,-0.7002801120448179,,,,,1428,potipe,,315555,,,Devoicing,818,p,NonFinal,,
1037,,DispreferenceFirst,dispreferenceFirst,-0.47460844803037494,,,,,2107,dikebe,,521865,,,Voicing,1060,b,NonFinal,,
961,,DispreferenceFirst,dispreferenceFirst,-0.5530973451327433,,,,,1808,bikub,,361025,,,Voicing,984,b,Final,,
60,,DispreferenceFirst,dispreferenceFirst,-0.5431830526887561,,,,,1841,bugib,,169623,,,Voicing,83,b,Final,,
22,,DispreferenceFirst,dispreferenceFirst,-0.9433962264150944,,,,,1060,tekub,,109024,,,Voicing,45,b,Final,,
185,,DispreferenceFirst,dispreferenceFirst,-0.4662004662004662,,,,,2145,bugibe,,365287,,,Voicing,208,b,NonFinal,,
909,,DispreferenceFirst,dispreferenceFirst,-0.7776049766718507,,,,,1286,todipe,,272661,,,Devoicing,932,p,NonFinal,,
779,,DispreferenceFirst,dispreferenceFirst_inverse,-0.14029180695847362,,,,,7128,,,293869,,,Devoicing,802,,Final,,
673,,DispreferenceFirst,dispreferenceFirst_inverse,-0.7874015748031497,,,,,1270,placebo,,100235,,,Voicing,696,b,NonFinal,,
593,,DispreferenceFirst,dispreferenceFirst,-1.095290251916758,,,,,913,potip,,561928,,,Devoicing,616,p,Final,,
527,,DispreferenceFirst,dispreferenceFirst,-1.091703056768559,,,,,916,bogep,,435022,,,Devoicing,550,p,Final,,
6,,DispreferenceFirst,dispreferenceFirst,-0.723589001447178,,,,,1382,todipe,,85089,,,Devoicing,29,p,NonFinal,,
201,,DispreferenceFirst,dispreferenceFirst,-0.3523608174770965,,,,,2838,degobe,,396102,,,Voicing,224,b,NonFinal,,
710,,DispreferenceFirst,dispreferenceFirst_inverse,-0.8278145695364238,,,,,1208,potib,,168273,,,Voicing,733,b,Final,,
1164,,DispreferenceFirst,dispreferenceFirst,-0.5293806246691372,,,,,1889,pidobe,,773549,,,Voicing,1187,b,NonFinal,,
1014,,DispreferenceFirst,dispreferenceFirst,-0.5091649694501018,,,,,1964,goteb,,454638,,,Voicing,1037,b,Final,,
111,,DispreferenceFirst,dispreferenceFirst,-0.6464124111182935,,,,,1547,pidob,,249009,,,Voicing,134,b,Final,,
27,,DispreferenceFirst,dispreferenceFirst,-0.6325110689437066,,,,,1581,todupe,,118302,,,Devoicing,50,p,NonFinal,,
1053,,DispreferenceFirst,dispreferenceFirst,-0.44603033006244425,,,,,2242,dikep,,559069,,,Devoicing,1076,p,Final,,
74,,DispreferenceFirst,dispreferenceFirst,-0.5605381165919282,,,,,1784,dikepe,,192429,,,Devoicing,97,p,NonFinal,,
1000,,DispreferenceFirst,dispreferenceFirst,-0.7880220646178093,,,,,1269,bogepe,,428213,,,Devoicing,1023,p,NonFinal,,
1023,,DispreferenceFirst,dispreferenceFirst,-0.6285355122564424,,,,,1591,potibe,,482083,,,Voicing,1046,b,NonFinal,,
528,,DispreferenceFirst,dispreferenceFirst,-0.06696129637069774,,,,,14934,,,449040,,,Devoicing,551,,Final,,
253,,DispreferenceFirst,dispreferenceFirst,-0.6086427267194157,,,,,1643,dogip,,485285,,,Devoicing,276,p,Final,,
163,,DispreferenceFirst,dispreferenceFirst,-0.7716049382716049,,,,,1296,bikupe,,327884,,,Devoicing,186,p,NonFinal,,
999,,DispreferenceFirst,dispreferenceFirst,-0.8382229673093042,,,,,1193,dokupe,,426713,,,Devoicing,1022,p,NonFinal,,
251,,DispreferenceFirst,dispreferenceFirst,-0.8090614886731392,,,,,1236,dikebe,,481666,,,Voicing,274,b,NonFinal,,
587,,DispreferenceFirst,dispreferenceFirst,-0.8554319931565441,,,,,1169,tekube,,554260,,,Voicing,610,b,NonFinal,,
571,,DispreferenceFirst,dispreferenceFirst,-0.8382229673093042,,,,,1193,pigep,,529374,,,Devoicing,594,p,Final,,
898,,DispreferenceFirst,dispreferenceFirst,-0.8077544426494345,,,,,1238,dikepe,,255104,,,Devoicing,921,p,NonFinal,,
705,,DispreferenceFirst,dispreferenceFirst_inverse,-0.7518796992481203,,,,,1330,dogib,,159064,,,Voicing,728,b,Final,,
369,,DispreferenceFirst,dispreferenceFirst,-0.7616146230007617,,,,,1313,degope,,173470,,,Devoicing,392,p,NonFinal,,
1156,,DispreferenceFirst,dispreferenceFirst,-0.7401924500370096,,,,,1351,potibe,,757572,,,Voicing,1179,b,NonFinal,,
878,,DispreferenceFirst,dispreferenceFirst,-0.5411255411255411,,,,,1848,degope,,222301,,,Devoicing,901,p,NonFinal,,
72,,DispreferenceFirst,dispreferenceFirst,-0.9615384615384616,,,,,1040,degob,,189240,,,Voicing,95,b,Final,,
813,,DispreferenceFirst,dispreferenceFirst_inverse,-0.6906077348066298,,,,,1448,todupe,,343260,,,Devoicing,836,p,NonFinal,,
444,,DispreferenceFirst,dispreferenceFirst,-0.8810572687224669,,,,,1135,bugib,,298467,,,Voicing,467,b,Final,,
206,,DispreferenceFirst,dispreferenceFirst,-0.7692307692307693,,,,,1300,gotebe,,404480,,,Voicing,229,b,NonFinal,,
751,,DispreferenceFirst,dispreferenceFirst_inverse,-0.8818342151675485,,,,,1134,todib,,244868,,,Voicing,774,b,Final,,
576,,DispreferenceFirst,dispreferenceFirst,-0.8748906386701663,,,,,1143,todube,,538313,,,Voicing,599,b,NonFinal,,
620,,DispreferenceFirst,dispreferenceFirst,-0.8984725965858041,,,,,1113,bikube,,600391,,,Voicing,643,b,NonFinal,,
477,,DispreferenceFirst,dispreferenceFirst,-0.8431703204047217,,,,,1186,dogipe,,348198,,,Devoicing,500,p,NonFinal,,
71,,DispreferenceFirst,dispreferenceFirst,-0.8312551953449709,,,,,1203,pigepe,,188010,,,Devoicing,94,p,NonFinal,,
291,,DispreferenceFirst,dispreferenceFirst,-0.5803830528148578,,,,,1723,bikube,,548954,,,Voicing,314,b,NonFinal,,
423,,DispreferenceFirst,dispreferenceFirst,-1.0845986984815619,,,,,922,pigeb,,262424,,,Voicing,446,b,Final,,
990,,DispreferenceFirst,dispreferenceFirst,-0.8833922261484098,,,,,1132,bugib,,405547,,,Voicing,1013,b,Final,,
868,,DispreferenceFirst,dispreferenceFirst,-0.6261740763932373,,,,,1597,todipe,,201464,,,Devoicing,891,p,NonFinal,,
143,,DispreferenceFirst,dispreferenceFirst,-0.7336757153338225,,,,,1363,tekupe,,298530,,,Devoicing,166,p,NonFinal,,
948,,DispreferenceFirst,dispreferenceFirst,-0.6397952655150352,,,,,1563,tekub,,335659,,,Voicing,971,b,Final,,
568,,DispreferenceFirst,dispreferenceFirst,-0.7923930269413629,,,,,1262,dogip,,524325,,,Devoicing,591,p,Final,,
850,,DispreferenceFirst,dispreferenceFirst_inverse,-0.11117287381878821,,,,,8995,,,675869,,,Devoicing,873,,Final,,
54,,DispreferenceFirst,dispreferenceFirst,-0.6317119393556538,,,,,1583,bogepe,,160505,,,Devoicing,77,p,NonFinal,,
273,,DispreferenceFirst,dispreferenceFirst,-0.8298755186721992,,,,,1205,pigebe,,518359,,,Voicing,296,b,NonFinal,,
547,,DispreferenceFirst,dispreferenceFirst,-0.8431703204047217,,,,,1186,degop,,478254,,,Devoicing,570,p,Final,,
322,,DispreferenceFirst,dispreferenceFirst,-0.5341880341880342,,,,,1872,pigebe,,604283,,,Voicing,345,b,NonFinal,,
958,,DispreferenceFirst,dispreferenceFirst,-0.5747126436781609,,,,,1740,bidob,,355666,,,Voicing,981,b,Final,,
616,,DispreferenceFirst,dispreferenceFirst,-0.9541984732824428,,,,,1048,bugip,,594962,,,Devoicing,639,p,Final,,
69,,DispreferenceFirst,dispreferenceFirst,-0.5672149744753261,,,,,1763,dikeb,,185230,,,Voicing,92,b,Final,,
1101,,DispreferenceFirst,dispreferenceFirst,-0.48614487117160915,,,,,2057,pidobe,,663829,,,Voicing,1124,b,NonFinal,,
610,,DispreferenceFirst,dispreferenceFirst,-0.7501875468867217,,,,,1333,todube,,587024,,,Voicing,633,b,NonFinal,,
149,,DispreferenceFirst,dispreferenceFirst,-0.9671179883945842,,,,,1034,tekub,,307928,,,Voicing,172,b,Final,,
519,,DispreferenceFirst,dispreferenceFirst,-0.8680555555555556,,,,,1152,potip,,423104,,,Devoicing,542,p,Final,,
652,,DispreferenceFirst,dispreferenceFirst,-0.9285051067780873,,,,,1077,potibe,,642274,,,Voicing,675,b,NonFinal,,
608,,DispreferenceFirst,dispreferenceFirst,-0.5467468562055768,,,,,1829,dikebe,,584134,,,Voicing,631,b,NonFinal,,
438,,DispreferenceFirst,dispreferenceFirst,-0.9302325581395349,,,,,1075,pidope,,290809,,,Devoicing,461,p,NonFinal,,
272,,DispreferenceFirst,dispreferenceFirst,-0.7385524372230429,,,,,1354,gotep,,516990,,,Devoicing,295,p,Final,,
61,,DispreferenceFirst,dispreferenceFirst,-1.0030090270812437,,,,,997,pidob,,170783,,,Voicing,84,b,Final,,
1055,,DispreferenceFirst,dispreferenceFirst,-0.3952569169960474,,,,,2530,dikebe,,564437,,,Voicing,1078,b,NonFinal,,
1150,,DispreferenceFirst,dispreferenceFirst,-0.7204610951008645,,,,,1388,pigebe,,748074,,,Voicing,1173,b,NonFinal,,
157,,DispreferenceFirst,dispreferenceFirst,-0.7855459544383346,,,,,1273,gotepe,,319336,,,Devoicing,180,p,NonFinal,,
135,,DispreferenceFirst,dispreferenceFirst,-0.8703220191470844,,,,,1149,degope,,285862,,,Devoicing,158,p,NonFinal,,
604,,DispreferenceFirst,dispreferenceFirst,-0.594883997620464,,,,,1681,bogep,,578305,,,Devoicing,627,p,Final,,
19,,DispreferenceFirst,dispreferenceFirst,-0.8873114463176575,,,,,1127,degob,,104955,,,Voicing,42,b,Final,,
439,,DispreferenceFirst,dispreferenceFirst,-0.8810572687224669,,,,,1135,bugipe,,292298,,,Devoicing,462,p,NonFinal,,
305,,DispreferenceFirst,dispreferenceFirst,-0.6218905472636815,,,,,1608,gutobe,,573639,,,Voicing,328,b,NonFinal,,
769,,DispreferenceFirst,dispreferenceFirst_inverse,-0.5367686527106817,,,,,1863,gotepe,,273393,,,Devoicing,792,p,NonFinal,,
345,,DispreferenceFirst,dispreferenceFirst,-0.8873114463176575,,,,,1127,bidope,,130158,,,Devoicing,368,p,NonFinal,,
146,,DispreferenceFirst,dispreferenceFirst,-0.5977286312014346,,,,,1673,bidob,,303539,,,Voicing,169,b,Final,,
827,,DispreferenceFirst,dispreferenceFirst_inverse,-0.6309148264984227,,,,,1585,tekupe,,366536,,,Devoicing,850,p,NonFinal,,
130,,DispreferenceFirst,dispreferenceFirst,-0.7541478129713424,,,,,1326,dogib,,278563,,,Voicing,153,b,Final,,
481,,DispreferenceFirst,dispreferenceFirst,-1.183431952662722,,,,,845,dokub,,352867,,,Voicing,504,b,Final,,
550,,DispreferenceFirst,dispreferenceFirst,-0.4800768122899664,,,,,2083,tekube,,483063,,,Voicing,573,b,NonFinal,,
713,,DispreferenceFirst,dispreferenceFirst_inverse,-0.08675284115554785,,,,,11527,,,182120,,,Devoicing,736,,Final,,
630,,DispreferenceFirst,dispreferenceFirst,-0.9871668311944719,,,,,1013,degop,,613649,,,Devoicing,653,p,Final,,
270,,DispreferenceFirst,dispreferenceFirst,-0.4672897196261682,,,,,2140,gotebe,,514170,,,Voicing,293,b,NonFinal,,
880,,DispreferenceFirst,dispreferenceFirst,-0.48053820278712156,,,,,2081,pidob,,225990,,,Voicing,903,b,Final,,
132,,DispreferenceFirst,dispreferenceFirst,-0.3443526170798898,,,,,2904,,,281613,,,Devoicing,155,,Final,,
1081,,DispreferenceFirst,dispreferenceFirst,-0.3343363423604146,,,,,2991,,,619308,,,Devoicing,1104,,Final,,
596,,DispreferenceFirst,dispreferenceFirst,-0.8136696501220505,,,,,1229,degobe,,566278,,,Voicing,619,b,NonFinal,,
1152,,DispreferenceFirst,dispreferenceFirst,-0.7776049766718507,,,,,1286,bogep,,750983,,,Devoicing,1175,p,Final,,
986,,DispreferenceFirst,dispreferenceFirst,-0.6925207756232687,,,,,1444,bugipe,,400028,,,Devoicing,1009,p,NonFinal,,
585,,DispreferenceFirst,dispreferenceFirst,-1.0582010582010581,,,,,945,tekup,,550550,,,Devoicing,608,p,Final,,
12,,DispreferenceFirst,dispreferenceFirst,-0.6729475100942126,,,,,1486,dikepe,,95357,,,Devoicing,35,p,NonFinal,,
804,,DispreferenceFirst,dispreferenceFirst_inverse,-0.8019246190858059,,,,,1247,dikepe,,328083,,,Devoicing,827,p,NonFinal,,
1045,,DispreferenceFirst,dispreferenceFirst,-0.6447453255963894,,,,,1551,bidobe,,540882,,,Voicing,1068,b,NonFinal,,
1047,,DispreferenceFirst,dispreferenceFirst,-0.47961630695443647,,,,,2085,bikup,,544791,,,Devoicing,1070,p,Final,,
279,,DispreferenceFirst,dispreferenceFirst,-0.7874015748031497,,,,,1270,dokup,,528507,,,Devoicing,302,p,Final,,
776,,DispreferenceFirst,dispreferenceFirst_inverse,-1.001001001001001,,,,,999,pigeb,,284851,,,Voicing,799,b,Final,,
1064,,DispreferenceFirst,dispreferenceFirst,-0.4816955684007707,,,,,2076,dokup,,584044,,,Devoicing,1087,p,Final,,
348,,DispreferenceFirst,dispreferenceFirst,-0.7331378299120235,,,,,1364,gotepe,,134578,,,Devoicing,371,p,NonFinal,,
935,,DispreferenceFirst,dispreferenceFirst,-0.38955979742890534,,,,,2567,dogib,,314423,,,Voicing,958,b,Final,,
421,,DispreferenceFirst,dispreferenceFirst,-0.9337068160597572,,,,,1071,dikepe,,260064,,,Devoicing,444,p,NonFinal,,
606,,DispreferenceFirst,dispreferenceFirst,-1.037344398340249,,,,,964,pidop,,580985,,,Devoicing,629,p,Final,,
218,,DispreferenceFirst,dispreferenceFirst,-0.6631299734748011,,,,,1508,tekup,,426056,,,Devoicing,241,p,Final,,
1099,,DispreferenceFirst,dispreferenceFirst,-0.7027406886858749,,,,,1423,bidop,,659610,,,Devoicing,1122,p,Final,,
312,,DispreferenceFirst,dispreferenceFirst,-0.7102272727272727,,,,,1408,dogibe,,585907,,,Voicing,335,b,NonFinal,,
280,,DispreferenceFirst,dispreferenceFirst,-0.6349206349206349,,,,,1575,dokube,,530237,,,Voicing,303,b,NonFinal,,
1175,,DispreferenceFirst,dispreferenceFirst,-0.42535091450446616,,,,,2351,bogebe,,791796,,,Voicing,1198,b,NonFinal,,
846,,DispreferenceFirst,dispreferenceFirst_inverse,-0.0810307106393323,,,,,12341,,,465458,,,Devoicing,869,,Final,,
59,,DispreferenceFirst,dispreferenceFirst,-0.7974481658692185,,,,,1254,bugipe,,167613,,,Devoicing,82,p,NonFinal,,
950,,DispreferenceFirst,dispreferenceFirst,-0.5341880341880342,,,,,1872,gutob,,339039,,,Voicing,973,b,Final,,
785,,DispreferenceFirst,dispreferenceFirst_inverse,-0.9319664492078286,,,,,1073,bugib,,301558,,,Voicing,808,b,Final,,
834,,DispreferenceFirst,dispreferenceFirst_inverse,-0.6097560975609756,,,,,1640,pigeb,,379234,,,Voicing,857,b,Final,,
755,,DispreferenceFirst,dispreferenceFirst_inverse,-0.7163323782234957,,,,,1396,bugipe,,250497,,,Devoicing,778,p,NonFinal,,
317,,DispreferenceFirst,dispreferenceFirst,-0.6684491978609626,,,,,1496,bugibe,,594215,,,Voicing,340,b,NonFinal,,
230,,DispreferenceFirst,dispreferenceFirst,-0.4789272030651341,,,,,2088,dikep,,449362,,,Devoicing,253,p,Final,,
358,,DispreferenceFirst,dispreferenceFirst,-1.1049723756906078,,,,,905,pidob,,148525,,,Voicing,381,b,Final,,
634,,DispreferenceFirst,dispreferenceFirst,-1.1123470522803114,,,,,899,todup,,618588,,,Devoicing,657,p,Final,,
1104,,DispreferenceFirst,dispreferenceFirst,-0.5827505827505828,,,,,1716,bogebe,,671098,,,Voicing,1127,b,NonFinal,,
424,,DispreferenceFirst,dispreferenceFirst,-0.78125,,,,,1280,pigepe,,263864,,,Devoicing,447,p,NonFinal,,
466,,DispreferenceFirst,dispreferenceFirst,-0.7530120481927711,,,,,1328,potipe,,332981,,,Devoicing,489,p,NonFinal,,
248,,DispreferenceFirst,dispreferenceFirst,-0.7304601899196493,,,,,1369,bidobe,,476767,,,Voicing,271,b,NonFinal,,
1056,,DispreferenceFirst,dispreferenceFirst,-0.5518763796909493,,,,,1812,bogebe,,566437,,,Voicing,1079,b,NonFinal,,
699,,DispreferenceFirst,dispreferenceFirst_inverse,-0.9775171065493646,,,,,1023,gutob,,148237,,,Voicing,722,b,Final,,
436,,DispreferenceFirst,dispreferenceFirst,-0.9794319294809011,,,,,1021,potib,,288149,,,Voicing,459,b,Final,,
523,,DispreferenceFirst,dispreferenceFirst,-0.9033423667570009,,,,,1107,gotep,,429093,,,Devoicing,546,p,Final,,
700,,DispreferenceFirst,dispreferenceFirst_inverse,-0.5491488193300385,,,,,1821,bugipe,,150206,,,Devoicing,723,p,NonFinal,,
445,,DispreferenceFirst,dispreferenceFirst,-0.8375209380234506,,,,,1194,bidope,,299807,,,Devoicing,468,p,NonFinal,,
738,,DispreferenceFirst,dispreferenceFirst_inverse,-0.6112469437652812,,,,,1636,dokupe,,220403,,,Devoicing,761,p,NonFinal,,
175,,DispreferenceFirst,dispreferenceFirst,-0.727802037845706,,,,,1374,dogip,,346971,,,Devoicing,198,p,Final,,
505,,DispreferenceFirst,dispreferenceFirst,-0.7336757153338225,,,,,1363,bugibe,,401098,,,Voicing,528,b,NonFinal,,
516,,DispreferenceFirst,dispreferenceFirst,-0.8802816901408451,,,,,1136,todup,,419145,,,Devoicing,539,p,Final,,
761,,DispreferenceFirst,dispreferenceFirst_inverse,-0.6993006993006993,,,,,1430,tekupe,,260096,,,Devoicing,784,p,NonFinal,,
709,,DispreferenceFirst,dispreferenceFirst_inverse,-0.778816199376947,,,,,1284,dikeb,,166903,,,Voicing,732,b,Final,,
874,,DispreferenceFirst,dispreferenceFirst,-0.3397893306150187,,,,,2943,bidob,,214352,,,Voicing,897,b,Final,,
1173,,DispreferenceFirst,dispreferenceFirst,-0.6365372374283895,,,,,1571,tekube,,787877,,,Voicing,1196,b,NonFinal,,
1151,,DispreferenceFirst,dispreferenceFirst,-0.7593014426727411,,,,,1317,gotebe,,749544,,,Voicing,1174,b,NonFinal,,
205,,DispreferenceFirst,dispreferenceFirst,-0.78064012490242,,,,,1281,gutobe,,403030,,,Voicing,228,b,NonFinal,,
954,,DispreferenceFirst,dispreferenceFirst,-0.5973715651135006,,,,,1674,bugipe,,345537,,,Devoicing,977,p,NonFinal,,
1017,,DispreferenceFirst,dispreferenceFirst,-0.4562043795620438,,,,,2192,bidop,,461848,,,Devoicing,1040,p,Final,,
638,,DispreferenceFirst,dispreferenceFirst,-0.7727975270479135,,,,,1294,bikube,,624047,,,Voicing,661,b,NonFinal,,
647,,DispreferenceFirst,dispreferenceFirst,-1.0582010582010581,,,,,945,dogip,,635755,,,Devoicing,670,p,Final,,
353,,DispreferenceFirst,dispreferenceFirst,-0.8123476848090982,,,,,1231,dogipe,,142056,,,Devoicing,376,p,NonFinal,,
624,,DispreferenceFirst,dispreferenceFirst,-0.6191950464396285,,,,,1615,gotebe,,605980,,,Voicing,647,b,NonFinal,,
854,,DispreferenceFirst,dispreferenceFirst,-0.44385264092321347,,,,,2253,dogib,,175828,,,Voicing,877,b,Final,,
960,,DispreferenceFirst,dispreferenceFirst,-0.7067137809187279,,,,,1415,pidob,,359056,,,Voicing,983,b,Final,,
824,,DispreferenceFirst,dispreferenceFirst_inverse,-0.3380662609871535,,,,,2958,gotepe,,361537,,,Devoicing,847,p,NonFinal,,
56,,DispreferenceFirst,dispreferenceFirst,-1.0,,,,,1000,dikeb,,162784,,,Voicing,79,b,Final,,
722,,DispreferenceFirst,dispreferenceFirst_inverse,-0.7342143906020558,,,,,1362,pidope,,196177,,,Devoicing,745,p,NonFinal,,
465,,DispreferenceFirst,dispreferenceFirst,-1.0405827263267429,,,,,961,gutob,,331501,,,Voicing,488,b,Final,,
989,,DispreferenceFirst,dispreferenceFirst,-0.8110300081103001,,,,,1233,potipe,,404237,,,Devoicing,1012,p,NonFinal,,
242,,DispreferenceFirst,dispreferenceFirst,-0.6060606060606061,,,,,1650,pigep,,468358,,,Devoicing,265,p,Final,,
151,,DispreferenceFirst,dispreferenceFirst,-0.6013229104028863,,,,,1663,todupe,,311607,,,Devoicing,174,p,NonFinal,,
936,,DispreferenceFirst,dispreferenceFirst,-0.6157635467980296,,,,,1624,bikupe,,316203,,,Devoicing,959,p,NonFinal,,
105,,DispreferenceFirst,dispreferenceFirst,-0.7668711656441718,,,,,1304,potipe,,239830,,,Devoicing,128,p,NonFinal,,
739,,DispreferenceFirst,dispreferenceFirst_inverse,-0.7739938080495357,,,,,1292,bidope,,221843,,,Devoicing,762,p,NonFinal,,
836,,DispreferenceFirst,dispreferenceFirst_inverse,-0.7032348804500703,,,,,1422,bogepe,,382303,,,Devoicing,859,p,NonFinal,,
373,,DispreferenceFirst,dispreferenceFirst,-0.8688097306689835,,,,,1151,gutope,,178039,,,Devoicing,396,p,NonFinal,,
447,,DispreferenceFirst,dispreferenceFirst,-1.0695187165775402,,,,,935,todub,,302117,,,Voicing,470,b,Final,,
5,,DispreferenceFirst,dispreferenceFirst,-0.7369196757553427,,,,,1357,pidob,,83549,,,Voicing,28,b,Final,,
517,,DispreferenceFirst,dispreferenceFirst,-0.9930486593843099,,,,,1007,bikup,,420315,,,Devoicing,540,p,Final,,
476,,DispreferenceFirst,dispreferenceFirst,-1.0638297872340425,,,,,940,todib,,346858,,,Voicing,499,b,Final,,
30,,DispreferenceFirst,dispreferenceFirst,-0.8787346221441125,,,,,1138,gutob,,122632,,,Voicing,53,b,Final,,
271,,DispreferenceFirst,dispreferenceFirst,-0.9033423667570009,,,,,1107,bidop,,515440,,,Devoicing,294,p,Final,,
952,,DispreferenceFirst,dispreferenceFirst,-0.6045949214026602,,,,,1654,dogipe,,342248,,,Devoicing,975,p,NonFinal,,
190,,DispreferenceFirst,dispreferenceFirst,-0.3933910306845004,,,,,2542,bikube,,376935,,,Voicing,213,b,NonFinal,,
946,,DispreferenceFirst,dispreferenceFirst,-0.9124087591240876,,,,,1096,goteb,,332500,,,Voicing,969,b,Final,,
228,,DispreferenceFirst,dispreferenceFirst,-0.8517887563884157,,,,,1174,degop,,444103,,,Devoicing,251,p,Final,,
844,,DispreferenceFirst,dispreferenceFirst_inverse,-0.8756567425569177,,,,,1142,bogeb,,393291,,,Voicing,867,b,Final,,
1125,,DispreferenceFirst,dispreferenceFirst,-0.8136696501220505,,,,,1229,tekube,,706902,,,Voicing,1148,b,NonFinal,,
182,,DispreferenceFirst,dispreferenceFirst,-0.5186721991701245,,,,,1928,degop,,359738,,,Devoicing,205,p,Final,,
327,,DispreferenceFirst,dispreferenceFirst,-0.6693440428380187,,,,,1494,pigep,,612722,,,Devoicing,350,p,Final,,
659,,DispreferenceFirst,dispreferenceFirst,-1.0080645161290323,,,,,992,bikup,,651342,,,Devoicing,682,p,Final,,
217,,DispreferenceFirst,dispreferenceFirst,-0.6920415224913494,,,,,1445,bidobe,,424386,,,Voicing,240,b,NonFinal,,
303,,DispreferenceFirst,dispreferenceFirst,-0.7288629737609329,,,,,1372,todip,,569820,,,Devoicing,326,p,Final,,
838,,DispreferenceFirst,dispreferenceFirst_inverse,-1.0729613733905579,,,,,932,tekub,,384833,,,Voicing,861,b,Final,,
380,,DispreferenceFirst,dispreferenceFirst,-0.78125,,,,,1280,dikepe,,187878,,,Devoicing,403,p,NonFinal,,
214,,DispreferenceFirst,dispreferenceFirst,-0.42955326460481097,,,,,2328,dogibe,,418728,,,Voicing,237,b,NonFinal,,
869,,DispreferenceFirst,dispreferenceFirst,-0.7122507122507122,,,,,1404,todib,,203023,,,Voicing,892,b,Final,,
808,,DispreferenceFirst,dispreferenceFirst_inverse,-0.9891196834817013,,,,,1011,gutob,,333062,,,Voicing,831,b,Final,,
216,,DispreferenceFirst,dispreferenceFirst,-0.7189072609633357,,,,,1391,pidobe,,422767,,,Voicing,239,b,NonFinal,,
540,,DispreferenceFirst,dispreferenceFirst,-0.9276437847866419,,,,,1078,gutop,,466166,,,Devoicing,563,p,Final,,
38,,DispreferenceFirst,dispreferenceFirst,-0.8984725965858041,,,,,1113,pigeb,,137799,,,Voicing,61,b,Final,,
360,,DispreferenceFirst,dispreferenceFirst,-1.0319917440660475,,,,,969,todub,,151064,,,Voicing,383,b,Final,,
574,,DispreferenceFirst,dispreferenceFirst,-0.4526935264825713,,,,,2209,bidop,,534974,,,Devoicing,597,p,Final,,
202,,DispreferenceFirst,dispreferenceFirst,-0.7616146230007617,,,,,1313,todip,,397581,,,Devoicing,225,p,Final,,
524,,DispreferenceFirst,dispreferenceFirst,-0.8826125330979699,,,,,1133,tekup,,430383,,,Devoicing,547,p,Final,,
664,,DispreferenceFirst,dispreferenceFirst_inverse,-0.9442870632672332,,,,,1059,copy,,85268,,,Devoicing,687,p,NonFinal,,
886,,DispreferenceFirst,dispreferenceFirst,-0.4734848484848485,,,,,2112,todub,,237357,,,Voicing,909,b,Final,,
1092,,DispreferenceFirst,dispreferenceFirst,-0.6711409395973155,,,,,1490,degobe,,644443,,,Voicing,1115,b,NonFinal,,
24,,DispreferenceFirst,dispreferenceFirst,-0.6609385327164574,,,,,1513,gutope,,111854,,,Devoicing,47,p,NonFinal,,
340,,DispreferenceFirst,dispreferenceFirst,-0.8298755186721992,,,,,1205,degope,,123479,,,Devoicing,363,p,NonFinal,,
215,,DispreferenceFirst,dispreferenceFirst,-0.43122035360068994,,,,,2319,bugibe,,421207,,,Voicing,238,b,NonFinal,,
191,,DispreferenceFirst,dispreferenceFirst,-0.6238303181534622,,,,,1603,bidobe,,378705,,,Voicing,214,b,NonFinal,,
777,,DispreferenceFirst,dispreferenceFirst_inverse,-0.639386189258312,,,,,1564,pigepe,,286591,,,Devoicing,800,p,NonFinal,,
484,,DispreferenceFirst,dispreferenceFirst,-1.0050251256281406,,,,,995,bugib,,356876,,,Voicing,507,b,Final,,
1063,,DispreferenceFirst,dispreferenceFirst,-0.5844535359438925,,,,,1711,todibe,,581824,,,Voicing,1086,b,NonFinal,,
724,,DispreferenceFirst,dispreferenceFirst_inverse,-0.6944444444444444,,,,,1440,potib,,199427,,,Voicing,747,b,Final,,
530,,DispreferenceFirst,dispreferenceFirst,-0.9242144177449169,,,,,1082,bidop,,452399,,,Devoicing,553,p,Final,,
629,,DispreferenceFirst,dispreferenceFirst,-0.8375209380234506,,,,,1194,todibe,,612459,,,Voicing,652,b,NonFinal,,
929,,DispreferenceFirst,dispreferenceFirst,-0.7112375533428165,,,,,1406,todub,,303335,,,Voicing,952,b,Final,,
115,,DispreferenceFirst,dispreferenceFirst,-0.9233610341643582,,,,,1083,bogeb,,255857,,,Voicing,138,b,Final,,
899,,DispreferenceFirst,dispreferenceFirst,-0.9523809523809523,,,,,1050,todib,,256304,,,Voicing,922,b,Final,,
545,,DispreferenceFirst,dispreferenceFirst,-0.779423226812159,,,,,1283,potibe,,475275,,,Voicing,568,b,NonFinal,,
76,,DispreferenceFirst,dispreferenceFirst,-0.8613264427217916,,,,,1161,tekub,,195638,,,Voicing,99,b,Final,,
662,,DispreferenceFirst,dispreferenceFirst_inverse,-1.0615711252653928,,,,,942,canopy,,82109,,,Devoicing,685,p,NonFinal,,
926,,DispreferenceFirst,dispreferenceFirst,-0.819672131147541,,,,,1220,bogepe,,298756,,,Devoicing,949,p,NonFinal,,
561,,DispreferenceFirst,dispreferenceFirst,-0.06805498843065197,,,,,14694,,,512308,,,Devoicing,584,,Final,,
998,,DispreferenceFirst,dispreferenceFirst,-0.9920634920634921,,,,,1008,gotepe,,425184,,,Devoicing,1021,p,NonFinal,,
298,,DispreferenceFirst,dispreferenceFirst,-0.44583147570218457,,,,,2243,bugip,,562171,,,Devoicing,321,p,Final,,
274,,DispreferenceFirst,dispreferenceFirst,-0.5128205128205128,,,,,1950,bidobe,,520459,,,Voicing,297,b,NonFinal,,
53,,DispreferenceFirst,dispreferenceFirst,-0.7680491551459293,,,,,1302,dokupe,,158765,,,Devoicing,76,p,NonFinal,,
881,,DispreferenceFirst,dispreferenceFirst,-0.7955449482895783,,,,,1257,tekupe,,227449,,,Devoicing,904,p,NonFinal,,
581,,DispreferenceFirst,dispreferenceFirst,-0.8912655971479501,,,,,1122,bugip,,544962,,,Devoicing,604,p,Final,,
95,,DispreferenceFirst,dispreferenceFirst,-0.7686395080707148,,,,,1301,gotepe,,224793,,,Devoicing,118,p,NonFinal,,
1089,,DispreferenceFirst,dispreferenceFirst,-0.4662004662004662,,,,,2145,bikup,,637334,,,Devoicing,1112,p,Final,,
684,,DispreferenceFirst,dispreferenceFirst_inverse,-0.6031363088057901,,,,,1658,gotepe,,125211,,,Devoicing,707,p,NonFinal,,
284,,DispreferenceFirst,dispreferenceFirst,-0.7380073800738007,,,,,1355,gutobe,,536626,,,Voicing,307,b,NonFinal,,
450,,DispreferenceFirst,dispreferenceFirst,-0.7524454477050414,,,,,1329,dogipe,,306076,,,Devoicing,473,p,NonFinal,,
480,,DispreferenceFirst,dispreferenceFirst,-1.0493179433368311,,,,,953,potib,,351867,,,Voicing,503,b,Final,,
680,,DispreferenceFirst,dispreferenceFirst_inverse,-0.9596928982725528,,,,,1042,wallaby,,113153,,,Voicing,703,b,NonFinal,,
831,,DispreferenceFirst,dispreferenceFirst_inverse,-0.9285051067780873,,,,,1077,goteb,,373984,,,Voicing,854,b,Final,,
243,,DispreferenceFirst,dispreferenceFirst,-0.9259259259259259,,,,,1080,todup,,469588,,,Devoicing,266,p,Final,,
172,,DispreferenceFirst,dispreferenceFirst,-0.8116883116883117,,,,,1232,todup,,341652,,,Devoicing,195,p,Final,,
186,,DispreferenceFirst,dispreferenceFirst,-0.5050505050505051,,,,,1980,gutop,,367417,,,Devoicing,209,p,Final,,
107,,DispreferenceFirst,dispreferenceFirst,-0.6501950585175552,,,,,1538,bikupe,,242630,,,Devoicing,130,p,NonFinal,,
495,,DispreferenceFirst,dispreferenceFirst,-0.076103500761035,,,,,13140,,,383621,,,Devoicing,518,,Final,,
942,,DispreferenceFirst,dispreferenceFirst,-0.8695652173913043,,,,,1150,todib,,325041,,,Voicing,965,b,Final,,
67,,DispreferenceFirst,dispreferenceFirst,-0.8071025020177562,,,,,1239,goteb,,182061,,,Voicing,90,b,Final,,
1033,,DispreferenceFirst,dispreferenceFirst,-0.3107520198881293,,,,,3218,gotep,,510547,,,Devoicing,1056,p,Final,,
492,,DispreferenceFirst,dispreferenceFirst,-0.601684717208183,,,,,1662,bogepe,,368754,,,Devoicing,515,p,NonFinal,,
363,,DispreferenceFirst,dispreferenceFirst,-0.08275405494869248,,,,,12084,,,164612,,,Devoicing,386,,Final,,
177,,DispreferenceFirst,dispreferenceFirst,-0.9242144177449169,,,,,1082,bugip,,349910,,,Devoicing,200,p,Final,,
1042,,DispreferenceFirst,dispreferenceFirst,-0.4670714619336759,,,,,2141,gutop,,534614,,,Devoicing,1065,p,Final,,
58,,DispreferenceFirst,dispreferenceFirst,-0.7479431563201197,,,,,1337,bikub,,166214,,,Voicing,81,b,Final,,
233,,DispreferenceFirst,dispreferenceFirst,-0.7558578987150416,,,,,1323,bogebe,,455001,,,Voicing,256,b,NonFinal,,
988,,DispreferenceFirst,dispreferenceFirst,-0.8156606851549756,,,,,1226,bikupe,,402837,,,Devoicing,1011,p,NonFinal,,
1007,,DispreferenceFirst,dispreferenceFirst,-1.0893246187363834,,,,,918,degob,,441770,,,Voicing,1030,b,Final,,
440,,DispreferenceFirst,dispreferenceFirst,-0.9442870632672332,,,,,1059,dokub,,293638,,,Voicing,463,b,Final,,
120,,DispreferenceFirst,dispreferenceFirst,-1.303780964797914,,,,,767,gutob,,263756,,,Voicing,143,b,Final,,
632,,DispreferenceFirst,dispreferenceFirst,-0.9442870632672332,,,,,1059,bogebe,,616208,,,Voicing,655,b,NonFinal,,
603,,DispreferenceFirst,dispreferenceFirst,-0.5313496280552603,,,,,1882,bidobe,,576386,,,Voicing,626,b,NonFinal,,
26,,DispreferenceFirst,dispreferenceFirst,-0.5688282138794084,,,,,1758,pidope,,116573,,,Devoicing,49,p,NonFinal,,
740,,DispreferenceFirst,dispreferenceFirst_inverse,-0.7246376811594203,,,,,1380,dikeb,,223373,,,Voicing,763,b,Final,,
703,,DispreferenceFirst,dispreferenceFirst_inverse,-0.6215040397762586,,,,,1609,todipe,,156235,,,Devoicing,726,p,NonFinal,,
8,,DispreferenceFirst,dispreferenceFirst,-0.6891798759476223,,,,,1451,degope,,88528,,,Devoicing,31,p,NonFinal,,
127,,DispreferenceFirst,dispreferenceFirst,-0.819000819000819,,,,,1221,dokub,,274064,,,Voicing,150,b,Final,,
210,,DispreferenceFirst,dispreferenceFirst,-0.6373486297004461,,,,,1569,dokube,,411589,,,Voicing,233,b,NonFinal,,
895,,DispreferenceFirst,dispreferenceFirst,-0.7898894154818326,,,,,1266,bugib,,250905,,,Voicing,918,b,Final,,
720,,DispreferenceFirst,dispreferenceFirst_inverse,-0.7002801120448179,,,,,1428,goteb,,193408,,,Voicing,743,b,Final,,
147,,DispreferenceFirst,dispreferenceFirst,-0.5488474204171241,,,,,1822,dikepe,,305548,,,Devoicing,170,p,NonFinal,,
905,,DispreferenceFirst,dispreferenceFirst,-0.7662835249042146,,,,,1305,dokupe,,266012,,,Devoicing,928,p,NonFinal,,
375,,DispreferenceFirst,dispreferenceFirst,-0.8382229673093042,,,,,1193,bidope,,180889,,,Devoicing,398,p,NonFinal,,
1084,,DispreferenceFirst,dispreferenceFirst,-0.38022813688212925,,,,,2630,pigep,,626556,,,Devoicing,1107,p,Final,,
11,,DispreferenceFirst,dispreferenceFirst,-0.8532423208191127,,,,,1172,bidob,,93717,,,Voicing,34,b,Final,,
1174,,DispreferenceFirst,dispreferenceFirst,-0.7880220646178093,,,,,1269,pigep,,789296,,,Devoicing,1197,p,Final,,
357,,DispreferenceFirst,dispreferenceFirst,-0.8382229673093042,,,,,1193,todipe,,147395,,,Devoicing,380,p,NonFinal,,
354,,DispreferenceFirst,dispreferenceFirst,-0.7107320540156361,,,,,1407,pigepe,,143616,,,Devoicing,377,p,NonFinal,,
689,,DispreferenceFirst,dispreferenceFirst_inverse,-0.7082152974504249,,,,,1412,tekupe,,134419,,,Devoicing,712,p,NonFinal,,
969,,DispreferenceFirst,dispreferenceFirst,-0.8203445447087777,,,,,1219,goteb,,373152,,,Voicing,992,b,Final,,
577,,DispreferenceFirst,dispreferenceFirst,-0.8968609865470852,,,,,1115,dokube,,539673,,,Voicing,600,b,NonFinal,,
938,,DispreferenceFirst,dispreferenceFirst,-0.7027406886858749,,,,,1423,bidope,,319512,,,Devoicing,961,p,NonFinal,,
981,,DispreferenceFirst,dispreferenceFirst,-0.7107320540156361,,,,,1407,bidope,,392739,,,Devoicing,1004,p,NonFinal,,
992,,DispreferenceFirst,dispreferenceFirst,-0.33557046979865773,,,,,2980,bogeb,,410196,,,Voicing,1015,b,Final,,
259,,DispreferenceFirst,dispreferenceFirst,-0.8841732979664014,,,,,1131,dikep,,496123,,,Devoicing,282,p,Final,,
333,,DispreferenceFirst,dispreferenceFirst,-0.7077140835102619,,,,,1413,goteb,,112842,,,Voicing,356,b,Final,,
509,,DispreferenceFirst,dispreferenceFirst,-0.648508430609598,,,,,1542,potibe,,407277,,,Voicing,532,b,NonFinal,,
31,,DispreferenceFirst,dispreferenceFirst,-0.7704160246533128,,,,,1298,bogepe,,124081,,,Devoicing,54,p,NonFinal,,
877,,DispreferenceFirst,dispreferenceFirst,-0.382262996941896,,,,,2616,dogipe,,220290,,,Devoicing,900,p,NonFinal,,
892,,DispreferenceFirst,dispreferenceFirst,-0.831946755407654,,,,,1202,tekub,,245546,,,Voicing,915,b,Final,,
928,,DispreferenceFirst,dispreferenceFirst,-0.7898894154818326,,,,,1266,pidob,,301766,,,Voicing,951,b,Final,,
32,,DispreferenceFirst,dispreferenceFirst,-0.5361930294906166,,,,,1865,dokupe,,126101,,,Devoicing,55,p,NonFinal,,
1158,,DispreferenceFirst,dispreferenceFirst,-0.8665511265164645,,,,,1154,bugibe,,760382,,,Voicing,1181,b,NonFinal,,
546,,DispreferenceFirst,dispreferenceFirst,-0.6983240223463687,,,,,1432,gotep,,476874,,,Devoicing,569,p,Final,,
784,,DispreferenceFirst,dispreferenceFirst_inverse,-0.9689922480620154,,,,,1032,dokub,,300338,,,Voicing,807,b,Final,,
65,,DispreferenceFirst,dispreferenceFirst,-0.6802721088435374,,,,,1470,todib,,178062,,,Voicing,88,b,Final,,
908,,DispreferenceFirst,dispreferenceFirst,-0.514668039114771,,,,,1943,bikub,,271231,,,Voicing,931,b,Final,,
592,,DispreferenceFirst,dispreferenceFirst,-1.1198208286674132,,,,,893,bogep,,560839,,,Devoicing,615,p,Final,,
671,,DispreferenceFirst,dispreferenceFirst_inverse,-0.7117437722419929,,,,,1405,lobe,,96756,,,Voicing,694,b,NonFinal,,
433,,DispreferenceFirst,dispreferenceFirst,-0.9259259259259259,,,,,1080,pigepe,,284600,,,Devoicing,456,p,NonFinal,,
646,,DispreferenceFirst,dispreferenceFirst,-1.1037527593818985,,,,,906,bidop,,634635,,,Devoicing,669,p,Final,,
715,,DispreferenceFirst,dispreferenceFirst_inverse,-0.6958942240779401,,,,,1437,dikepe,,185709,,,Devoicing,738,p,NonFinal,,
117,,DispreferenceFirst,dispreferenceFirst,-0.6317119393556538,,,,,1583,degope,,259207,,,Devoicing,140,p,NonFinal,,
313,,DispreferenceFirst,dispreferenceFirst,-1.0351966873706004,,,,,966,gotep,,587057,,,Devoicing,336,p,Final,,
631,,DispreferenceFirst,dispreferenceFirst,-0.8438818565400844,,,,,1185,degobe,,614989,,,Voicing,654,b,NonFinal,,
431,,DispreferenceFirst,dispreferenceFirst,-1.0615711252653928,,,,,942,todib,,281960,,,Voicing,454,b,Final,,
537,,DispreferenceFirst,dispreferenceFirst,-0.7220216606498195,,,,,1385,dikep,,462387,,,Devoicing,560,p,Final,,
953,,DispreferenceFirst,dispreferenceFirst,-0.7961783439490446,,,,,1256,potib,,343678,,,Voicing,976,b,Final,,
816,,DispreferenceFirst,dispreferenceFirst_inverse,-0.8920606601248885,,,,,1121,potib,,346750,,,Voicing,839,b,Final,,
236,,DispreferenceFirst,dispreferenceFirst,-0.6788866259334692,,,,,1473,bugibe,,459820,,,Voicing,259,b,NonFinal,,
775,,DispreferenceFirst,dispreferenceFirst_inverse,-0.5668934240362812,,,,,1764,bugib,,283701,,,Voicing,798,b,Final,,
1031,,DispreferenceFirst,dispreferenceFirst,-0.5966587112171837,,,,,1676,degobe,,505298,,,Voicing,1054,b,NonFinal,,
28,,DispreferenceFirst,dispreferenceFirst,-0.7886435331230284,,,,,1268,goteb,,119772,,,Voicing,51,b,Final,,
262,,DispreferenceFirst,dispreferenceFirst,-0.6788866259334692,,,,,1473,todibe,,500902,,,Voicing,285,b,NonFinal,,
1080,,DispreferenceFirst,dispreferenceFirst,-0.7993605115907274,,,,,1251,gutobe,,617568,,,Voicing,1103,b,NonFinal,,
669,,DispreferenceFirst,dispreferenceFirst_inverse,-0.8591065292096219,,,,,1164,grub,,93316,,,Voicing,692,b,Final,,
46,,DispreferenceFirst,dispreferenceFirst,-1.050420168067227,,,,,952,bidob,,149207,,,Voicing,69,b,Final,,
78,,DispreferenceFirst,dispreferenceFirst,-0.7993605115907274,,,,,1251,bogepe,,198308,,,Devoicing,101,p,NonFinal,,
1144,,DispreferenceFirst,dispreferenceFirst,-0.8658008658008658,,,,,1155,bugip,,738746,,,Devoicing,1167,p,Final,,
467,,DispreferenceFirst,dispreferenceFirst,-0.7092198581560284,,,,,1410,degob,,334540,,,Voicing,490,b,Final,,
884,,DispreferenceFirst,dispreferenceFirst,-0.4972650422675286,,,,,2011,dikeb,,233098,,,Voicing,907,b,Final,,
860,,DispreferenceFirst,dispreferenceFirst,-0.6997900629811057,,,,,1429,dokupe,,187666,,,Devoicing,883,p,NonFinal,,
456,,DispreferenceFirst,dispreferenceFirst,-0.8123476848090982,,,,,1231,todipe,,314104,,,Devoicing,479,p,NonFinal,,
402,,DispreferenceFirst,dispreferenceFirst,-0.7616146230007617,,,,,1313,bogepe,,235499,,,Devoicing,425,p,NonFinal,,
919,,DispreferenceFirst,dispreferenceFirst,-0.7874015748031497,,,,,1270,gutope,,288358,,,Devoicing,942,p,NonFinal,,
194,,DispreferenceFirst,dispreferenceFirst,-0.5780346820809249,,,,,1730,degobe,,384014,,,Voicing,217,b,NonFinal,,
750,,DispreferenceFirst,dispreferenceFirst_inverse,-0.7342143906020558,,,,,1362,todipe,,243579,,,Devoicing,773,p,NonFinal,,
125,,DispreferenceFirst,dispreferenceFirst,-0.5017561465127948,,,,,1993,bogepe,,271564,,,Devoicing,148,p,NonFinal,,
801,,DispreferenceFirst,dispreferenceFirst_inverse,-0.9328358208955224,,,,,1072,dikeb,,323594,,,Voicing,824,b,Final,,
397,,DispreferenceFirst,dispreferenceFirst,-0.7204610951008645,,,,,1388,tekupe,,228620,,,Devoicing,420,p,NonFinal,,
678,,DispreferenceFirst,dispreferenceFirst_inverse,-1.0493179433368311,,,,,953,toupee,,110063,,,Devoicing,701,p,NonFinal,,
304,,DispreferenceFirst,dispreferenceFirst,-0.5254860746190226,,,,,1903,tekube,,571869,,,Voicing,327,b,NonFinal,,
778,,DispreferenceFirst,dispreferenceFirst_inverse,-1.0214504596527068,,,,,979,bidob,,287720,,,Voicing,801,b,Final,,
780,,DispreferenceFirst,dispreferenceFirst_inverse,-0.8960573476702509,,,,,1116,dogib,,295229,,,Voicing,803,b,Final,,
974,,DispreferenceFirst,dispreferenceFirst,-0.8368200836820083,,,,,1195,gotepe,,382413,,,Devoicing,997,p,NonFinal,,
62,,DispreferenceFirst,dispreferenceFirst,-0.4342162396873643,,,,,2303,goteb,,173243,,,Voicing,85,b,Final,,
114,,DispreferenceFirst,dispreferenceFirst,-0.38080731150038083,,,,,2626,degob,,254618,,,Voicing,137,b,Final,,
503,,DispreferenceFirst,dispreferenceFirst,-0.8680555555555556,,,,,1152,gutop,,397899,,,Devoicing,526,p,Final,,
621,,DispreferenceFirst,dispreferenceFirst,-0.8904719501335708,,,,,1123,pigebe,,601781,,,Voicing,644,b,NonFinal,,
200,,DispreferenceFirst,dispreferenceFirst,-0.7633587786259542,,,,,1310,gotep,,393112,,,Devoicing,223,p,Final,,
355,,DispreferenceFirst,dispreferenceFirst,-0.9652509652509652,,,,,1036,bidob,,144856,,,Voicing,378,b,Final,,
563,,DispreferenceFirst,dispreferenceFirst,-1.0683760683760684,,,,,936,todup,,515037,,,Devoicing,586,p,Final,,
707,,DispreferenceFirst,dispreferenceFirst_inverse,-0.384172109104879,,,,,2603,todub,,163414,,,Voicing,730,b,Final,,
1024,,DispreferenceFirst,dispreferenceFirst,-0.47393364928909953,,,,,2110,potip,,484342,,,Devoicing,1047,p,Final,,
975,,DispreferenceFirst,dispreferenceFirst,-0.8880994671403197,,,,,1126,degope,,383690,,,Devoicing,998,p,NonFinal,,
1079,,DispreferenceFirst,dispreferenceFirst,-0.501002004008016,,,,,1996,todip,,616128,,,Devoicing,1102,p,Final,,
635,,DispreferenceFirst,dispreferenceFirst,-0.8787346221441125,,,,,1138,tekube,,619888,,,Voicing,658,b,NonFinal,,
607,,DispreferenceFirst,dispreferenceFirst,-1.002004008016032,,,,,998,dikep,,582135,,,Devoicing,630,p,Final,,
1013,,DispreferenceFirst,dispreferenceFirst,-0.6489292667099286,,,,,1541,bidob,,452478,,,Voicing,1036,b,Final,,
104,,DispreferenceFirst,dispreferenceFirst,-0.8460236886632826,,,,,1182,bidob,,238361,,,Voicing,127,b,Final,,
49,,DispreferenceFirst,dispreferenceFirst,-0.9737098344693281,,,,,1027,todub,,153126,,,Voicing,72,b,Final,,
712,,DispreferenceFirst,dispreferenceFirst_inverse,-0.8936550491510277,,,,,1119,bogeb,,171712,,,Voicing,735,b,Final,,
396,,DispreferenceFirst,dispreferenceFirst,-0.04851542790607413,,,,,20612,,,227051,,,Devoicing,419,,Final,,
478,,DispreferenceFirst,dispreferenceFirst,-0.8650519031141869,,,,,1156,bidob,,349578,,,Voicing,501,b,Final,,
765,,DispreferenceFirst,dispreferenceFirst_inverse,-0.5219206680584552,,,,,1916,potib,,266614,,,Voicing,788,b,Final,,
422,,DispreferenceFirst,dispreferenceFirst,-1.0204081632653061,,,,,980,tekub,,261354,,,Voicing,445,b,Final,,
362,,DispreferenceFirst,dispreferenceFirst,-0.9208103130755064,,,,,1086,dogib,,153614,,,Voicing,385,b,Final,,
156,,DispreferenceFirst,dispreferenceFirst,-0.7836990595611285,,,,,1276,gutope,,317916,,,Devoicing,179,p,NonFinal,,
871,,DispreferenceFirst,dispreferenceFirst,-0.6868131868131868,,,,,1456,potipe,,206193,,,Devoicing,894,p,NonFinal,,
504,,DispreferenceFirst,dispreferenceFirst,-0.6501950585175552,,,,,1538,tekube,,399589,,,Voicing,527,b,NonFinal,,
145,,DispreferenceFirst,dispreferenceFirst,-0.7598784194528876,,,,,1316,bugib,,301719,,,Voicing,168,b,Final,,
641,,DispreferenceFirst,dispreferenceFirst,-0.7524454477050414,,,,,1329,dikebe,,628056,,,Voicing,664,b,NonFinal,,
782,,DispreferenceFirst,dispreferenceFirst_inverse,-0.9699321047526673,,,,,1031,pigeb,,297869,,,Voicing,805,b,Final,,
1016,,DispreferenceFirst,dispreferenceFirst,-0.28826751225136926,,,,,3469,dogip,,459457,,,Devoicing,1039,p,Final,,
57,,DispreferenceFirst,dispreferenceFirst,-0.5668934240362812,,,,,1764,potib,,164714,,,Voicing,80,b,Final,,
1036,,DispreferenceFirst,dispreferenceFirst,-0.41736227045075125,,,,,2396,pigep,,519556,,,Devoicing,1059,p,Final,,
294,,DispreferenceFirst,dispreferenceFirst,-0.5305039787798409,,,,,1885,pidobe,,554093,,,Voicing,317,b,NonFinal,,
245,,DispreferenceFirst,dispreferenceFirst,-0.723589001447178,,,,,1382,pidobe,,472438,,,Voicing,268,b,NonFinal,,
131,,DispreferenceFirst,dispreferenceFirst,-0.9140767824497258,,,,,1094,dokupe,,279803,,,Devoicing,154,p,NonFinal,,
819,,DispreferenceFirst,dispreferenceFirst_inverse,-0.970873786407767,,,,,1030,todub,,351159,,,Voicing,842,b,Final,,
64,,DispreferenceFirst,dispreferenceFirst,-0.683526999316473,,,,,1463,degob,,176432,,,Voicing,87,b,Final,,
393,,DispreferenceFirst,dispreferenceFirst,-1.0471204188481675,,,,,955,dokub,,205095,,,Voicing,416,b,Final,,
394,,DispreferenceFirst,dispreferenceFirst,-0.9587727708533078,,,,,1043,degob,,206284,,,Voicing,417,b,Final,,
418,,DispreferenceFirst,dispreferenceFirst,-0.9041591320072333,,,,,1106,bikub,,256065,,,Voicing,441,b,Final,,
311,,DispreferenceFirst,dispreferenceFirst,-0.5633802816901409,,,,,1775,dogip,,584327,,,Devoicing,334,p,Final,,
269,,DispreferenceFirst,dispreferenceFirst,-0.8665511265164645,,,,,1154,dogip,,511860,,,Devoicing,292,p,Final,,
506,,DispreferenceFirst,dispreferenceFirst,-0.9578544061302682,,,,,1044,pigep,,402288,,,Devoicing,529,p,Final,,
668,,DispreferenceFirst,dispreferenceFirst_inverse,-0.9950248756218906,,,,,1005,grab,,91537,,,Voicing,691,b,Final,,
341,,DispreferenceFirst,dispreferenceFirst,-0.9505703422053232,,,,,1052,tekub,,124730,,,Voicing,364,b,Final,,
261,,DispreferenceFirst,dispreferenceFirst,-0.6680026720106881,,,,,1497,degop,,499273,,,Devoicing,284,p,Final,,
584,,DispreferenceFirst,dispreferenceFirst,-0.916590284142988,,,,,1091,dokup,,549411,,,Devoicing,607,p,Final,,
520,,DispreferenceFirst,dispreferenceFirst,-0.8291873963515755,,,,,1206,bidobe,,424454,,,Voicing,543,b,NonFinal,,
771,,DispreferenceFirst,dispreferenceFirst_inverse,-0.8726003490401396,,,,,1146,tekub,,276542,,,Voicing,794,b,Final,,
876,,DispreferenceFirst,dispreferenceFirst,-0.6246096189881324,,,,,1601,bogeb,,217521,,,Voicing,899,b,Final,,
921,,DispreferenceFirst,dispreferenceFirst,-0.7199424046076314,,,,,1389,todipe,,292057,,,Devoicing,944,p,NonFinal,,
21,,DispreferenceFirst,dispreferenceFirst,-0.7911392405063291,,,,,1264,dikeb,,107814,,,Voicing,44,b,Final,,
1077,,DispreferenceFirst,dispreferenceFirst,-0.6988120195667366,,,,,1431,gotep,,612610,,,Devoicing,1100,p,Final,,
601,,DispreferenceFirst,dispreferenceFirst,-0.8149959250203749,,,,,1227,todibe,,572606,,,Voicing,624,b,NonFinal,,
840,,DispreferenceFirst,dispreferenceFirst_inverse,-1.0615711252653928,,,,,942,dikeb,,387562,,,Voicing,863,b,Final,,
1157,,DispreferenceFirst,dispreferenceFirst,-0.7468259895444361,,,,,1339,potip,,759072,,,Devoicing,1180,p,Final,,
1052,,DispreferenceFirst,dispreferenceFirst,-0.3688675765400221,,,,,2711,todube,,556639,,,Voicing,1075,b,NonFinal,,
910,,DispreferenceFirst,dispreferenceFirst,-0.7293946024799417,,,,,1371,pidope,,274231,,,Devoicing,933,p,NonFinal,,
613,,DispreferenceFirst,dispreferenceFirst,-0.9066183136899365,,,,,1103,todup,,591133,,,Devoicing,636,p,Final,,
549,,DispreferenceFirst,dispreferenceFirst,-0.8944543828264758,,,,,1118,dokup,,480823,,,Devoicing,572,p,Final,,
798,,DispreferenceFirst,dispreferenceFirst_inverse,-1.0695187165775402,,,,,935,todib,,319425,,,Voicing,821,b,Final,,
212,,DispreferenceFirst,dispreferenceFirst,-0.5817335660267597,,,,,1719,todup,,414818,,,Devoicing,235,p,Final,,
891,,DispreferenceFirst,dispreferenceFirst,-0.7440476190476191,,,,,1344,dogipe,,244196,,,Devoicing,914,p,NonFinal,,
79,,DispreferenceFirst,dispreferenceFirst,-0.7639419404125286,,,,,1309,dokupe,,199778,,,Devoicing,102,p,NonFinal,,
615,,DispreferenceFirst,dispreferenceFirst,-0.9569377990430622,,,,,1045,dokup,,593762,,,Devoicing,638,p,Final,,
1177,,DispreferenceFirst,dispreferenceFirst,-0.6527415143603134,,,,,1532,dogibe,,795096,,,Voicing,1200,b,NonFinal,,
1067,,DispreferenceFirst,dispreferenceFirst,-0.5627462014631401,,,,,1777,bikube,,591693,,,Voicing,1090,b,NonFinal,,
588,,DispreferenceFirst,dispreferenceFirst,-0.8787346221441125,,,,,1138,bidobe,,555610,,,Voicing,611,b,NonFinal,,
35,,DispreferenceFirst,dispreferenceFirst,-0.7374631268436578,,,,,1356,bikupe,,133440,,,Devoicing,58,p,NonFinal,,
515,,DispreferenceFirst,dispreferenceFirst,-0.7168458781362007,,,,,1395,dogibe,,417805,,,Voicing,538,b,NonFinal,,
1022,,DispreferenceFirst,dispreferenceFirst,-0.45248868778280543,,,,,2210,todup,,480293,,,Devoicing,1045,p,Final,,
1134,,DispreferenceFirst,dispreferenceFirst,-0.7168458781362007,,,,,1395,bidop,,721549,,,Devoicing,1157,p,Final,,
518,,DispreferenceFirst,dispreferenceFirst,-0.7485029940119761,,,,,1336,degobe,,421794,,,Voicing,541,b,NonFinal,,
381,,DispreferenceFirst,dispreferenceFirst,-0.8051529790660226,,,,,1242,pigepe,,189277,,,Devoicing,404,p,NonFinal,,
472,,DispreferenceFirst,dispreferenceFirst,-0.6548788474132285,,,,,1527,gutope,,341579,,,Devoicing,495,p,NonFinal,,
153,,DispreferenceFirst,dispreferenceFirst,-1.0660980810234542,,,,,938,bogeb,,313847,,,Voicing,176,b,Final,,
1098,,DispreferenceFirst,dispreferenceFirst,-0.509683995922528,,,,,1962,gutop,,657981,,,Devoicing,1121,p,Final,,
339,,DispreferenceFirst,dispreferenceFirst,-0.8012820512820513,,,,,1248,todupe,,122110,,,Devoicing,362,p,NonFinal,,
748,,DispreferenceFirst,dispreferenceFirst_inverse,-0.5564830272676683,,,,,1797,degob,,240850,,,Voicing,771,b,Final,,
900,,DispreferenceFirst,dispreferenceFirst,-0.8361204013377926,,,,,1196,pigeb,,257654,,,Voicing,923,b,Final,,
308,,DispreferenceFirst,dispreferenceFirst,-0.6793478260869565,,,,,1472,gutop,,578788,,,Devoicing,331,p,Final,,
851,,DispreferenceFirst,dispreferenceFirst,-0.07589556769884638,,,,,13176,bugipe,,166950,,,Devoicing,874,p,NonFinal,,
901,,DispreferenceFirst,dispreferenceFirst,-0.7267441860465116,,,,,1376,potipe,,259183,,,Devoicing,924,p,NonFinal,,
231,,DispreferenceFirst,dispreferenceFirst,-0.2552322613578356,,,,,3918,,,451192,,,Devoicing,254,,Final,,
839,,DispreferenceFirst,dispreferenceFirst_inverse,-0.6747638326585695,,,,,1482,bikupe,,386472,,,Devoicing,862,p,NonFinal,,
41,,DispreferenceFirst,dispreferenceFirst,-0.7457121551081283,,,,,1341,pidope,,142208,,,Devoicing,64,p,NonFinal,,
529,,DispreferenceFirst,dispreferenceFirst,-0.5200208008320333,,,,,1923,todibe,,451129,,,Voicing,552,b,NonFinal,,
1059,,DispreferenceFirst,dispreferenceFirst,-0.46296296296296297,,,,,2160,bogep,,573756,,,Devoicing,1082,p,Final,,
993,,DispreferenceFirst,dispreferenceFirst,-0.4568296025582458,,,,,2189,bikub,,412555,,,Voicing,1016,b,Final,,
482,,DispreferenceFirst,dispreferenceFirst,-0.8110300081103001,,,,,1233,bidope,,354297,,,Devoicing,505,p,NonFinal,,
302,,DispreferenceFirst,dispreferenceFirst,-0.6779661016949152,,,,,1475,todube,,568290,,,Voicing,325,b,NonFinal,,
1121,,DispreferenceFirst,dispreferenceFirst,-0.8375209380234506,,,,,1194,dogibe,,701702,,,Voicing,1144,b,NonFinal,,
389,,DispreferenceFirst,dispreferenceFirst,-0.8920606601248885,,,,,1121,dokupe,,200016,,,Devoicing,412,p,NonFinal,,
966,,DispreferenceFirst,dispreferenceFirst,-0.8849557522123894,,,,,1130,gutope,,369083,,,Devoicing,989,p,NonFinal,,
1122,,DispreferenceFirst,dispreferenceFirst,-0.916590284142988,,,,,1091,gutop,,703022,,,Devoicing,1145,p,Final,,
264,,DispreferenceFirst,dispreferenceFirst,-0.28546959748786754,,,,,3503,,,504562,,,Devoicing,287,,Final,,
842,,DispreferenceFirst,dispreferenceFirst_inverse,-0.8960573476702509,,,,,1116,bidob,,390541,,,Voicing,865,b,Final,,
538,,DispreferenceFirst,dispreferenceFirst,-0.831946755407654,,,,,1202,dokube,,463726,,,Voicing,561,b,NonFinal,,
866,,DispreferenceFirst,dispreferenceFirst,-0.5099439061703213,,,,,1961,potib,,197535,,,Voicing,889,b,Final,,
330,,DispreferenceFirst,dispreferenceFirst,-0.36643459142543056,,,,,2729,,,617181,,,Devoicing,353,,Final,,
326,,DispreferenceFirst,dispreferenceFirst,-0.8216926869350862,,,,,1217,todup,,611062,,,Devoicing,349,p,Final,,
349,,DispreferenceFirst,dispreferenceFirst,-0.8237232289950577,,,,,1214,dikeb,,135937,,,Voicing,372,b,Final,,
825,,DispreferenceFirst,dispreferenceFirst_inverse,-0.6309148264984227,,,,,1585,gutob,,363267,,,Voicing,848,b,Final,,
225,,DispreferenceFirst,dispreferenceFirst,-0.7057163020465773,,,,,1417,pigebe,,438984,,,Voicing,248,b,NonFinal,,
980,,DispreferenceFirst,dispreferenceFirst,-0.6788866259334692,,,,,1473,bogeb,,391169,,,Voicing,1003,b,Final,,
1078,,DispreferenceFirst,dispreferenceFirst,-0.8368200836820083,,,,,1195,bidobe,,613978,,,Voicing,1101,b,NonFinal,,
1154,,DispreferenceFirst,dispreferenceFirst,-0.8445945945945946,,,,,1184,dikep,,753723,,,Devoicing,1177,p,Final,,
1082,,DispreferenceFirst,dispreferenceFirst,-0.48828125,,,,,2048,todup,,621638,,,Devoicing,1105,p,Final,,
651,,DispreferenceFirst,dispreferenceFirst,-1.027749229188078,,,,,973,todip,,641004,,,Devoicing,674,p,Final,,
726,,DispreferenceFirst,dispreferenceFirst_inverse,-0.949667616334283,,,,,1053,dokub,,201947,,,Voicing,749,b,Final,,
511,,DispreferenceFirst,dispreferenceFirst,-0.7662835249042146,,,,,1305,todip,,410137,,,Devoicing,534,p,Final,,
331,,DispreferenceFirst,dispreferenceFirst,-333.3333333333333,,,,,3,todib,,108402,,,Voicing,354,b,Final,,
744,,DispreferenceFirst,dispreferenceFirst_inverse,-0.6027727546714888,,,,,1659,potipe,,229481,,,Devoicing,767,p,NonFinal,,
508,,DispreferenceFirst,dispreferenceFirst,-0.6793478260869565,,,,,1472,bikube,,405548,,,Voicing,531,b,NonFinal,,
861,,DispreferenceFirst,dispreferenceFirst,-0.8210180623973727,,,,,1218,degob,,189046,,,Voicing,884,b,Final,,
742,,DispreferenceFirst,dispreferenceFirst_inverse,-0.9746588693957114,,,,,1026,pidob,,226052,,,Voicing,765,b,Final,,
697,,DispreferenceFirst,dispreferenceFirst_inverse,-0.7012622720897616,,,,,1426,dokupe,,145697,,,Devoicing,720,p,NonFinal,,
654,,DispreferenceFirst,dispreferenceFirst,-0.9389671361502347,,,,,1065,gotebe,,644933,,,Voicing,677,b,NonFinal,,
416,,DispreferenceFirst,dispreferenceFirst,-1.0822510822510822,,,,,924,dikeb,,253495,,,Voicing,439,b,Final,,
1167,,DispreferenceFirst,dispreferenceFirst,-0.7727975270479135,,,,,1294,degobe,,778188,,,Voicing,1190,b,NonFinal,,
1066,,DispreferenceFirst,dispreferenceFirst,-0.49382716049382713,,,,,2025,dogibe,,589763,,,Voicing,1089,b,NonFinal,,
1137,,DispreferenceFirst,dispreferenceFirst,-0.6414368184733804,,,,,1559,bogep,,727798,,,Devoicing,1160,p,Final,,
611,,DispreferenceFirst,dispreferenceFirst,-0.6406149903907752,,,,,1561,potip,,588784,,,Devoicing,634,p,Final,,
714,,DispreferenceFirst,dispreferenceFirst_inverse,-0.5824111822947,,,,,1717,todupe,,184110,,,Devoicing,737,p,NonFinal,,
823,,DispreferenceFirst,dispreferenceFirst_inverse,-0.44543429844098,,,,,2245,todipe,,358427,,,Devoicing,846,p,NonFinal,,
560,,DispreferenceFirst,dispreferenceFirst,-0.3250975292587776,,,,,3076,todup,,500690,,,Devoicing,583,p,Final,,
371,,DispreferenceFirst,dispreferenceFirst,-1.1933174224343674,,,,,838,pidob,,175600,,,Voicing,394,b,Final,,
951,,DispreferenceFirst,dispreferenceFirst,-0.8368200836820083,,,,,1195,pigepe,,340398,,,Devoicing,974,p,NonFinal,,
835,,DispreferenceFirst,dispreferenceFirst_inverse,-0.7380073800738007,,,,,1355,bidope,,380733,,,Devoicing,858,p,NonFinal,,
758,,DispreferenceFirst,dispreferenceFirst_inverse,-0.6373486297004461,,,,,1569,bogepe,,255607,,,Devoicing,781,p,NonFinal,,
108,,DispreferenceFirst,dispreferenceFirst,-0.7407407407407407,,,,,1350,gotepe,,244139,,,Devoicing,131,p,NonFinal,,
150,,DispreferenceFirst,dispreferenceFirst,-0.5889281507656066,,,,,1698,pidope,,309778,,,Devoicing,173,p,NonFinal,,
639,,DispreferenceFirst,dispreferenceFirst,-0.8613264427217916,,,,,1161,pigep,,625357,,,Devoicing,662,p,Final,,
222,,DispreferenceFirst,dispreferenceFirst,-0.8038585209003215,,,,,1244,pigep,,432965,,,Devoicing,245,p,Final,,
889,,DispreferenceFirst,dispreferenceFirst,-0.9302325581395349,,,,,1075,degob,,241347,,,Voicing,912,b,Final,,
657,,DispreferenceFirst,dispreferenceFirst,-0.922509225092251,,,,,1084,pidop,,648982,,,Devoicing,680,p,Final,,
1115,,DispreferenceFirst,dispreferenceFirst,-0.7037297677691766,,,,,1421,bikube,,690674,,,Voicing,1138,b,NonFinal,,
864,,DispreferenceFirst,dispreferenceFirst,-0.727802037845706,,,,,1374,bikupe,,193555,,,Devoicing,887,p,NonFinal,,
408,,DispreferenceFirst,dispreferenceFirst,-1.0471204188481675,,,,,955,dokub,,243537,,,Voicing,431,b,Final,,
1010,,DispreferenceFirst,dispreferenceFirst,-0.5643340857787811,,,,,1772,gutope,,447039,,,Devoicing,1033,p,NonFinal,,
883,,DispreferenceFirst,dispreferenceFirst,-0.3137747097583935,,,,,3187,,,230808,,,Devoicing,906,,Final,,
1169,,DispreferenceFirst,dispreferenceFirst,-0.7067137809187279,,,,,1415,dokube,,781368,,,Voicing,1192,b,NonFinal,,
694,,DispreferenceFirst,dispreferenceFirst_inverse,-0.8149959250203749,,,,,1227,gutope,,141328,,,Devoicing,717,p,NonFinal,,
463,,DispreferenceFirst,dispreferenceFirst,-0.9727626459143969,,,,,1028,todub,,328901,,,Voicing,486,b,Final,,
539,,DispreferenceFirst,dispreferenceFirst,-0.942507068803016,,,,,1061,bugip,,464946,,,Devoicing,562,p,Final,,
1143,,DispreferenceFirst,dispreferenceFirst,-0.7867820613690008,,,,,1271,gotebe,,737436,,,Voicing,1166,b,NonFinal,,
841,,DispreferenceFirst,dispreferenceFirst_inverse,-0.6397952655150352,,,,,1563,degob,,389272,,,Voicing,864,b,Final,,
932,,DispreferenceFirst,dispreferenceFirst,-0.9149130832570905,,,,,1093,pidope,,308214,,,Devoicing,955,p,NonFinal,,
800,,DispreferenceFirst,dispreferenceFirst_inverse,-0.7112375533428165,,,,,1406,bidope,,322374,,,Devoicing,823,p,NonFinal,,
983,,DispreferenceFirst,dispreferenceFirst,-0.6724949562878278,,,,,1487,dogipe,,395838,,,Devoicing,1006,p,NonFinal,,
959,,DispreferenceFirst,dispreferenceFirst,-0.601684717208183,,,,,1662,todub,,357476,,,Voicing,982,b,Final,,
442,,DispreferenceFirst,dispreferenceFirst,-1.1820330969267139,,,,,846,dikeb,,295728,,,Voicing,465,b,Final,,
766,,DispreferenceFirst,dispreferenceFirst_inverse,-0.6720430107526881,,,,,1488,dogipe,,268254,,,Devoicing,789,p,NonFinal,,
600,,DispreferenceFirst,dispreferenceFirst,-0.9727626459143969,,,,,1028,degop,,571217,,,Devoicing,623,p,Final,,
268,,DispreferenceFirst,dispreferenceFirst,-0.8539709649871904,,,,,1171,bogep,,510541,,,Devoicing,291,p,Final,,
226,,DispreferenceFirst,dispreferenceFirst,-0.7739938080495357,,,,,1292,dikebe,,440424,,,Voicing,249,b,NonFinal,,
378,,DispreferenceFirst,dispreferenceFirst,-0.9041591320072333,,,,,1106,potipe,,184788,,,Devoicing,401,p,NonFinal,,
904,,DispreferenceFirst,dispreferenceFirst,-0.4780114722753346,,,,,2092,degope,,264562,,,Devoicing,927,p,NonFinal,,
434,,DispreferenceFirst,dispreferenceFirst,-1.0427528675703859,,,,,959,gutob,,285859,,,Voicing,457,b,Final,,
223,,DispreferenceFirst,dispreferenceFirst,-0.8340283569641368,,,,,1199,bogep,,434364,,,Devoicing,246,p,Final,,
696,,DispreferenceFirst,dispreferenceFirst_inverse,-0.8496176720475785,,,,,1177,goteb,,144117,,,Voicing,719,b,Final,,
1087,,DispreferenceFirst,dispreferenceFirst,-0.47573739295908657,,,,,2102,potibe,,633126,,,Voicing,1110,b,NonFinal,,
599,,DispreferenceFirst,dispreferenceFirst,-0.966183574879227,,,,,1035,dogip,,570037,,,Devoicing,622,p,Final,,
501,,DispreferenceFirst,dispreferenceFirst,-0.6574621959237343,,,,,1521,bogebe,,395069,,,Voicing,524,b,NonFinal,,
460,,DispreferenceFirst,dispreferenceFirst,-0.7727975270479135,,,,,1294,bikube,,319563,,,Devoicing,483,p,NonFinal,,
806,,DispreferenceFirst,dispreferenceFirst_inverse,-0.8517887563884157,,,,,1174,gotepe,,330533,,,Devoicing,829,p,NonFinal,,
532,,DispreferenceFirst,dispreferenceFirst,-0.8880994671403197,,,,,1126,tekup,,454928,,,Devoicing,555,p,Final,,
570,,DispreferenceFirst,dispreferenceFirst,-0.9149130832570905,,,,,1093,dikep,,528025,,,Devoicing,593,p,Final,,
404,,DispreferenceFirst,dispreferenceFirst,-0.8613264427217916,,,,,1161,bugipe,,238288,,,Devoicing,427,p,NonFinal,,
885,,DispreferenceFirst,dispreferenceFirst,-0.5485463521667581,,,,,1823,pidob,,235069,,,Voicing,908,b,Final,,
9,,DispreferenceFirst,dispreferenceFirst,-0.5399568034557235,,,,,1852,todib,,90548,,,Voicing,32,b,Final,,
395,,DispreferenceFirst,dispreferenceFirst,-0.7117437722419929,,,,,1405,bikube,,207844,,,Devoicing,418,p,NonFinal,,
63,,DispreferenceFirst,dispreferenceFirst,-0.7127583749109052,,,,,1403,gotepe,,174812,,,Devoicing,86,p,NonFinal,,
227,,DispreferenceFirst,dispreferenceFirst,-0.4604051565377532,,,,,2172,potip,,442753,,,Devoicing,250,p,Final,,
1160,,DispreferenceFirst,dispreferenceFirst,-0.7194244604316546,,,,,1390,todip,,763391,,,Devoicing,1183,p,Final,,
87,,DispreferenceFirst,dispreferenceFirst,-0.6578947368421053,,,,,1520,gutope,,212265,,,Devoicing,110,p,NonFinal,,
1106,,DispreferenceFirst,dispreferenceFirst,-0.7407407407407407,,,,,1350,tekube,,674808,,,Voicing,1129,b,NonFinal,,
90,,DispreferenceFirst,dispreferenceFirst,-0.8312551953449709,,,,,1203,todub,,216775,,,Voicing,113,b,Final,,
655,,DispreferenceFirst,dispreferenceFirst,-0.7993605115907274,,,,,1251,dogibe,,646423,,,Voicing,678,b,NonFinal,,
828,,DispreferenceFirst,dispreferenceFirst_inverse,-0.3453038674033149,,,,,2896,degope,,369585,,,Devoicing,851,p,NonFinal,,
579,,DispreferenceFirst,dispreferenceFirst,-1.001001001001001,,,,,999,gutobe,,542262,,,Voicing,602,b,NonFinal,,
642,,DispreferenceFirst,dispreferenceFirst,-0.8431703204047217,,,,,1186,tekup,,629396,,,Devoicing,665,p,Final,,
171,,DispreferenceFirst,dispreferenceFirst,-0.9380863039399625,,,,,1066,todip,,340242,,,Devoicing,194,p,Final,,
160,,DispreferenceFirst,dispreferenceFirst,-0.9514747859181731,,,,,1051,todub,,323425,,,Voicing,183,b,Final,,
704,,DispreferenceFirst,dispreferenceFirst_inverse,-0.8756567425569177,,,,,1142,pigeb,,157535,,,Voicing,727,b,Final,,
753,,DispreferenceFirst,dispreferenceFirst_inverse,-0.7385524372230429,,,,,1354,potipe,,247678,,,Devoicing,776,p,NonFinal,,
991,,DispreferenceFirst,dispreferenceFirst,-0.7390983000739099,,,,,1353,todib,,407066,,,Voicing,1014,b,Final,,
790,,DispreferenceFirst,dispreferenceFirst_inverse,-0.9242144177449169,,,,,1082,todub,,308467,,,Voicing,813,b,Final,,
39,,DispreferenceFirst,dispreferenceFirst,-0.823045267489712,,,,,1215,dogipe,,139169,,,Devoicing,62,p,NonFinal,,
437,,DispreferenceFirst,dispreferenceFirst,-0.8920606601248885,,,,,1121,tekupe,,289469,,,Devoicing,460,p,NonFinal,,
510,,DispreferenceFirst,dispreferenceFirst,-0.8250825082508251,,,,,1212,dokube,,408687,,,Voicing,533,b,NonFinal,,
717,,DispreferenceFirst,dispreferenceFirst_inverse,-0.6373486297004461,,,,,1569,degope,,188579,,,Devoicing,740,p,NonFinal,,
865,,DispreferenceFirst,dispreferenceFirst,-0.5941770647653001,,,,,1683,pigeb,,195395,,,Voicing,888,b,Final,,
491,,DispreferenceFirst,dispreferenceFirst,-0.7256894049346879,,,,,1378,bikub,,366905,,,Voicing,514,b,Final,,
1071,,DispreferenceFirst,dispreferenceFirst,-0.5698005698005698,,,,,1755,bidop,,600962,,,Devoicing,1094,p,Final,,
352,,DispreferenceFirst,dispreferenceFirst,-0.5945303210463734,,,,,1682,degob,,140627,,,Voicing,375,b,Final,,
867,,DispreferenceFirst,dispreferenceFirst,-0.5055611729019212,,,,,1978,dikepe,,199714,,,Devoicing,890,p,NonFinal,,
486,,DispreferenceFirst,dispreferenceFirst,-0.9267840593141798,,,,,1079,gotepe,,359196,,,Devoicing,509,p,NonFinal,,
493,,DispreferenceFirst,dispreferenceFirst,-0.7173601147776184,,,,,1394,todupe,,370334,,,Devoicing,516,p,NonFinal,,
924,,DispreferenceFirst,dispreferenceFirst,-0.7861635220125787,,,,,1272,bugipe,,296056,,,Devoicing,947,p,NonFinal,,
102,,DispreferenceFirst,dispreferenceFirst,-0.9276437847866419,,,,,1078,todib,,235471,,,Voicing,125,b,Final,,
112,,DispreferenceFirst,dispreferenceFirst,-0.7168458781362007,,,,,1395,bugipe,,250618,,,Devoicing,135,p,NonFinal,,
945,,DispreferenceFirst,dispreferenceFirst,-0.4083299305839118,,,,,2449,pigeb,,331210,,,Voicing,968,b,Final,,
1100,,DispreferenceFirst,dispreferenceFirst,-0.5449591280653951,,,,,1835,pigebe,,661590,,,Voicing,1123,b,NonFinal,,
337,,DispreferenceFirst,dispreferenceFirst,-0.7440476190476191,,,,,1344,bugipe,,119370,,,Devoicing,360,p,NonFinal,,
413,,DispreferenceFirst,dispreferenceFirst,-1.1560693641618498,,,,,865,dogib,,249886,,,Voicing,436,b,Final,,
879,,DispreferenceFirst,dispreferenceFirst,-0.7704160246533128,,,,,1298,todub,,223760,,,Voicing,902,b,Final,,
73,,DispreferenceFirst,dispreferenceFirst,-0.9157509157509157,,,,,1092,gutob,,190489,,,Voicing,96,b,Final,,
747,,DispreferenceFirst,dispreferenceFirst_inverse,-0.7604562737642585,,,,,1315,dokub,,238910,,,Voicing,770,b,Final,,
536,,DispreferenceFirst,dispreferenceFirst,-0.8888888888888888,,,,,1125,dogip,,460857,,,Devoicing,559,p,Final,,
1102,,DispreferenceFirst,dispreferenceFirst,-0.33156498673740054,,,,,3016,potip,,666989,,,Devoicing,1125,p,Final,,
316,,DispreferenceFirst,dispreferenceFirst,-0.4106776180698152,,,,,2435,bogep,,592526,,,Devoicing,339,p,Final,,
50,,DispreferenceFirst,dispreferenceFirst,-0.9891196834817013,,,,,1011,dokub,,154286,,,Voicing,73,b,Final,,
955,,DispreferenceFirst,dispreferenceFirst,-0.4314063848144953,,,,,2318,tekupe,,348017,,,Devoicing,978,p,NonFinal,,
749,,DispreferenceFirst,dispreferenceFirst_inverse,-0.9737098344693281,,,,,1027,dikeb,,242069,,,Voicing,772,b,Final,,
490,,DispreferenceFirst,dispreferenceFirst,-0.7680491551459293,,,,,1302,degope,,365385,,,Devoicing,513,p,NonFinal,,
856,,DispreferenceFirst,dispreferenceFirst,-0.5743825387708213,,,,,1741,pidope,,180397,,,Devoicing,879,p,NonFinal,,
1162,,DispreferenceFirst,dispreferenceFirst,-0.5202913631633714,,,,,1922,todibe,,768180,,,Voicing,1185,b,NonFinal,,
133,,DispreferenceFirst,dispreferenceFirst,-0.6765899864682002,,,,,1478,bugipe,,283312,,,Devoicing,156,p,NonFinal,,
920,,DispreferenceFirst,dispreferenceFirst,-0.5194805194805194,,,,,1925,degope,,290478,,,Devoicing,943,p,NonFinal,,
405,,DispreferenceFirst,dispreferenceFirst,-0.9523809523809523,,,,,1050,todib,,239588,,,Voicing,428,b,Final,,
1039,,DispreferenceFirst,dispreferenceFirst,-0.2913752913752914,,,,,3432,bogebe,,527324,,,Voicing,1062,b,NonFinal,,
297,,DispreferenceFirst,dispreferenceFirst,-0.2830455703368242,,,,,3533,,,559662,,,Devoicing,320,,Final,,
598,,DispreferenceFirst,dispreferenceFirst,-1.0362694300518134,,,,,965,gotep,,568827,,,Devoicing,621,p,Final,,
154,,DispreferenceFirst,dispreferenceFirst,-0.7763975155279503,,,,,1288,bikub,,315287,,,Voicing,177,b,Final,,
168,,DispreferenceFirst,dispreferenceFirst,-0.6688963210702341,,,,,1495,todube,,336053,,,Voicing,191,b,NonFinal,,
277,,DispreferenceFirst,dispreferenceFirst,-0.6002400960384153,,,,,1666,bugibe,,525428,,,Voicing,300,b,NonFinal,,
43,,DispreferenceFirst,dispreferenceFirst,-0.6605019815059445,,,,,1514,dogib,,145108,,,Voicing,66,b,Final,,
37,,DispreferenceFirst,dispreferenceFirst,-0.7558578987150416,,,,,1323,potipe,,136509,,,Devoicing,60,p,NonFinal,,
971,,DispreferenceFirst,dispreferenceFirst,-0.3570153516601214,,,,,2801,bogepe,,378511,,,Devoicing,994,p,NonFinal,,
799,,DispreferenceFirst,dispreferenceFirst_inverse,-0.8680555555555556,,,,,1152,pigepe,,320724,,,Devoicing,822,p,NonFinal,,
1028,,DispreferenceFirst,dispreferenceFirst,-0.3056234718826406,,,,,3272,tekube,,496910,,,Voicing,1051,b,NonFinal,,
96,,DispreferenceFirst,dispreferenceFirst,-0.7127583749109052,,,,,1403,pidope,,226383,,,Devoicing,119,p,NonFinal,,
736,,DispreferenceFirst,dispreferenceFirst_inverse,-0.9354536950420954,,,,,1069,pigeb,,216904,,,Voicing,759,b,Final,,
1109,,DispreferenceFirst,dispreferenceFirst,-0.3207184092366902,,,,,3118,dokube,,681986,,,Voicing,1132,b,NonFinal,,
809,,DispreferenceFirst,dispreferenceFirst_inverse,-0.8445945945945946,,,,,1184,todupe,,334392,,,Devoicing,832,p,NonFinal,,
346,,DispreferenceFirst,dispreferenceFirst,-0.8460236886632826,,,,,1182,bugib,,131578,,,Voicing,369,b,Final,,
342,,DispreferenceFirst,dispreferenceFirst,-0.8025682182985554,,,,,1246,dikepe,,126169,,,Devoicing,365,p,NonFinal,,
278,,DispreferenceFirst,dispreferenceFirst,-0.6684491978609626,,,,,1496,todibe,,527078,,,Voicing,301,b,NonFinal,,
155,,DispreferenceFirst,dispreferenceFirst,-0.9560229445506692,,,,,1046,gutob,,316486,,,Voicing,178,b,Final,,
1103,,DispreferenceFirst,dispreferenceFirst,-0.513874614594039,,,,,1946,dogibe,,669188,,,Voicing,1126,b,NonFinal,,
10,,DispreferenceFirst,dispreferenceFirst,-0.6108735491753207,,,,,1637,gotepe,,92387,,,Devoicing,33,p,NonFinal,,
299,,DispreferenceFirst,dispreferenceFirst,-0.6553079947575361,,,,,1526,bogebe,,563861,,,Voicing,322,b,NonFinal,,