,expt_id,Group,group_id,invRT,Trial,participant_id,response_correct,response_name,response_rt,stimuli_presented,trial_template,trial_duration,PartBlocks,AllBlocks,Pattern,trial_num,PB,Final,Part,Correct
1,#EXPTID,DispreferenceFirst,dispreferenceFirst,-333.3333333333333,#TRIAL,#PARTICIPANTID,(based on tag),TestResponseTarget_p1_inverse,3,todib,#TRIALTEMPLATE,108402,#PARTBLOCKS,#ALLBLOCKS,Voicing,24,b,Final,#PART,#CORRECT
2,#EXPTID,DispreferenceFirst,dispreferenceFirst,-0.5656108597285068,#TRIAL,#PARTICIPANTID,(based on tag),TestResponseTarget_p1_inverse,1768,bogepe,#TRIALTEMPLATE,111222,#PARTBLOCKS,#ALLBLOCKS,Devoicing,25,p,NonFinal,#PART,#CORRECT
3,#EXPTID,DispreferenceFirst,dispreferenceFirst,-0.7077140835102619,#TRIAL,#PARTICIPANTID,(based on tag),TestResponseTarget_p1_inverse,1413,goteb,#TRIALTEMPLATE,112842,#PARTBLOCKS,#ALLBLOCKS,Voicing,26,b,Final,#PART,#CORRECT
4,#EXPTID,DispreferenceFirst,dispreferenceFirst,-0.6939625260235948,#TRIAL,#PARTICIPANTID,(based on tag),TestResponseTarget_p1_inverse,1441,pigeb,#TRIALTEMPLATE,114481,#PARTBLOCKS,#ALLBLOCKS,Voicing,27,b,Final,#PART,#CORRECT
5,#EXPTID,DispreferenceFirst,dispreferenceFirst,-0.5973715651135006,#TRIAL,#PARTICIPANTID,(based on tag),TestResponseTarget_p1_inverse,1674,bikube,#TRIALTEMPLATE,116341,#PARTBLOCKS,#ALLBLOCKS,Devoicing,28,p,NonFinal,#PART,#CORRECT
6,#EXPTID,DispreferenceFirst,dispreferenceFirst,-0.7309941520467836,#TRIAL,#PARTICIPANTID,(based on tag),TestResponseTarget_p1_inverse,1368,dokupe,#TRIALTEMPLATE,117871,#PARTBLOCKS,#ALLBLOCKS,Devoicing,29,p,NonFinal,#PART,#CORRECT
7,#EXPTID,DispreferenceFirst,dispreferenceFirst,-0.7440476190476191,#TRIAL,#PARTICIPANTID,(based on tag),TestResponseTarget_p1_inverse,1344,bugipe,#TRIALTEMPLATE,119370,#PARTBLOCKS,#ALLBLOCKS,Devoicing,30,p,NonFinal,#PART,#CORRECT
8,#EXPTID,DispreferenceFirst,dispreferenceFirst,-0.8496176720475785,#TRIAL,#PARTICIPANTID,(based on tag),TestResponseTarget_p1_inverse,1177,dokub,#TRIALTEMPLATE,120690,#PARTBLOCKS,#ALLBLOCKS,Voicing,31,b,Final,#PART,#CORRECT
9,#EXPTID,DispreferenceFirst,dispreferenceFirst,-0.8012820512820513,#TRIAL,#PARTICIPANTID,(based on tag),TestResponseTarget_p1_inverse,1248,todupe,#TRIALTEMPLATE,122110,#PARTBLOCKS,#ALLBLOCKS,Devoicing,32,p,NonFinal,#PART,#CORRECT
10,#EXPTID,DispreferenceFirst,dispreferenceFirst,-0.8298755186721992,#TRIAL,#PARTICIPANTID,(based on tag),TestResponseTarget_p1_inverse,1205,degope,#TRIALTEMPLATE,123479,#PARTBLOCKS,#ALLBLOCKS,Devoicing,33,p,NonFinal,#PART,#CORRECT
11,#EXPTID,DispreferenceFirst,dispreferenceFirst,-0.9505703422053232,#TRIAL,#PARTICIPANTID,(based on tag),TestResponseTarget_p1_inverse,1052,tekub,#TRIALTEMPLATE,124730,#PARTBLOCKS,#ALLBLOCKS,Voicing,34,b,Final,#PART,#CORRECT
12,#EXPTID,DispreferenceFirst,dispreferenceFirst,-0.8025682182985554,#TRIAL,#PARTICIPANTID,(based on tag),TestResponseTarget_p1_inverse,1246,dikepe,#TRIALTEMPLATE,126169,#PARTBLOCKS,#ALLBLOCKS,Devoicing,35,p,NonFinal,#PART,#CORRECT
13,#EXPTID,DispreferenceFirst,dispreferenceFirst,-0.7479431563201197,#TRIAL,#PARTICIPANTID,(based on tag),TestResponseTarget_p1_inverse,1337,pidope,#TRIALTEMPLATE,127649,#PARTBLOCKS,#ALLBLOCKS,Devoicing,36,p,NonFinal,#PART,#CORRECT
14,#EXPTID,DispreferenceFirst,dispreferenceFirst,-0.9775171065493646,#TRIAL,#PARTICIPANTID,(based on tag),TestResponseTarget_p1_inverse,1023,bikub,#TRIALTEMPLATE,128829,#PARTBLOCKS,#ALLBLOCKS,Voicing,37,b,Final,#PART,#CORRECT
15,#EXPTID,DispreferenceFirst,dispreferenceFirst,-0.8873114463176575,#TRIAL,#PARTICIPANTID,(based on tag),TestResponseTarget_p1_inverse,1127,bidope,#TRIALTEMPLATE,130158,#PARTBLOCKS,#ALLBLOCKS,Devoicing,38,p,NonFinal,#PART,#CORRECT
16,#EXPTID,DispreferenceFirst,dispreferenceFirst,-0.8460236886632826,#TRIAL,#PARTICIPANTID,(based on tag),TestResponseTarget_p1_inverse,1182,bugib,#TRIALTEMPLATE,131578,#PARTBLOCKS,#ALLBLOCKS,Voicing,39,b,Final,#PART,#CORRECT
17,#EXPTID,DispreferenceFirst,dispreferenceFirst,-0.7656967840735069,#TRIAL,#PARTICIPANTID,(based on tag),TestResponseTarget_p1_inverse,1306,tekupe,#TRIALTEMPLATE,133048,#PARTBLOCKS,#ALLBLOCKS,Devoicing,40,p,NonFinal,#PART,#CORRECT
18,#EXPTID,DispreferenceFirst,dispreferenceFirst,-0.7331378299120235,#TRIAL,#PARTICIPANTID,(based on tag),TestResponseTarget_p1_inverse,1364,gotepe,#TRIALTEMPLATE,134578,#PARTBLOCKS,#ALLBLOCKS,Devoicing,41,p,NonFinal,#PART,#CORRECT
19,#EXPTID,DispreferenceFirst,dispreferenceFirst,-0.8237232289950577,#TRIAL,#PARTICIPANTID,(based on tag),TestResponseTarget_p1_inverse,1214,dikeb,#TRIALTEMPLATE,135937,#PARTBLOCKS,#ALLBLOCKS,Voicing,42,b,Final,#PART,#CORRECT
20,#EXPTID,DispreferenceFirst,dispreferenceFirst,-0.8445945945945946,#TRIAL,#PARTICIPANTID,(based on tag),TestResponseTarget_p1_inverse,1184,potib,#TRIALTEMPLATE,137267,#PARTBLOCKS,#ALLBLOCKS,Voicing,43,b,Final,#PART,#CORRECT
21,#EXPTID,DispreferenceFirst,dispreferenceFirst,-0.757002271006813,#TRIAL,#PARTICIPANTID,(based on tag),TestResponseTarget_p1_inverse,1321,potipe,#TRIALTEMPLATE,138747,#PARTBLOCKS,#ALLBLOCKS,Devoicing,44,p,NonFinal,#PART,#CORRECT
22,#EXPTID,DispreferenceFirst,dispreferenceFirst,-0.5945303210463734,#TRIAL,#PARTICIPANTID,(based on tag),TestResponseTarget_p1_inverse,1682,degob,#TRIALTEMPLATE,140627,#PARTBLOCKS,#ALLBLOCKS,Voicing,45,b,Final,#PART,#CORRECT
23,#EXPTID,DispreferenceFirst,dispreferenceFirst,-0.8123476848090982,#TRIAL,#PARTICIPANTID,(based on tag),TestResponseTarget_p1_inverse,1231,dogipe,#TRIALTEMPLATE,142056,#PARTBLOCKS,#ALLBLOCKS,Devoicing,46,p,NonFinal,#PART,#CORRECT
24,#EXPTID,DispreferenceFirst,dispreferenceFirst,-0.7107320540156361,#TRIAL,#PARTICIPANTID,(based on tag),TestResponseTarget_p1_inverse,1407,pigepe,#TRIALTEMPLATE,143616,#PARTBLOCKS,#ALLBLOCKS,Devoicing,47,p,NonFinal,#PART,#CORRECT
25,#EXPTID,DispreferenceFirst,dispreferenceFirst,-0.9652509652509652,#TRIAL,#PARTICIPANTID,(based on tag),TestResponseTarget_p1_inverse,1036,bidob,#TRIALTEMPLATE,144856,#PARTBLOCKS,#ALLBLOCKS,Voicing,48,b,Final,#PART,#CORRECT
26,#EXPTID,DispreferenceFirst,dispreferenceFirst,-0.9578544061302682,#TRIAL,#PARTICIPANTID,(based on tag),TestResponseTarget_p1_inverse,1044,bogeb,#TRIALTEMPLATE,146045,#PARTBLOCKS,#ALLBLOCKS,Voicing,49,b,Final,#PART,#CORRECT
27,#EXPTID,DispreferenceFirst,dispreferenceFirst,-0.8382229673093042,#TRIAL,#PARTICIPANTID,(based on tag),TestResponseTarget_p1_inverse,1193,todipe,#TRIALTEMPLATE,147395,#PARTBLOCKS,#ALLBLOCKS,Devoicing,50,p,NonFinal,#PART,#CORRECT
28,#EXPTID,DispreferenceFirst,dispreferenceFirst,-1.1049723756906078,#TRIAL,#PARTICIPANTID,(based on tag),TestResponseTarget_p1_inverse,905,pidob,#TRIALTEMPLATE,148525,#PARTBLOCKS,#ALLBLOCKS,Voicing,51,b,Final,#PART,#CORRECT
29,#EXPTID,DispreferenceFirst,dispreferenceFirst,-0.8271298593879239,#TRIAL,#PARTICIPANTID,(based on tag),TestResponseTarget_p1_inverse,1209,gutope,#TRIALTEMPLATE,149895,#PARTBLOCKS,#ALLBLOCKS,Devoicing,52,p,NonFinal,#PART,#CORRECT
30,#EXPTID,DispreferenceFirst,dispreferenceFirst,-1.0319917440660475,#TRIAL,#PARTICIPANTID,(based on tag),TestResponseTarget_p1_inverse,969,todub,#TRIALTEMPLATE,151064,#PARTBLOCKS,#ALLBLOCKS,Voicing,53,b,Final,#PART,#CORRECT
31,#EXPTID,DispreferenceFirst,dispreferenceFirst,-0.856898029134533,#TRIAL,#PARTICIPANTID,(based on tag),TestResponseTarget_p1_inverse,1167,gutob,#TRIALTEMPLATE,152374,#PARTBLOCKS,#ALLBLOCKS,Voicing,54,b,Final,#PART,#CORRECT
32,#EXPTID,DispreferenceFirst,dispreferenceFirst,-0.9208103130755064,#TRIAL,#PARTICIPANTID,(based on tag),TestResponseTarget_p1_inverse,1086,dogib,#TRIALTEMPLATE,153614,#PARTBLOCKS,#ALLBLOCKS,Voicing,55,b,Final,#PART,#CORRECT
33,#EXPTID,DispreferenceFirst,dispreferenceFirst,-0.08275405494869248,#TRIAL,#PARTICIPANTID,(any response),TestResponseTarget_p1_inverse,12084, ,#TRIALTEMPLATE,164612,#PARTBLOCKS,#ALLBLOCKS,Devoicing,56,,NonFinal,#PART,#CORRECT
34,#EXPTID,DispreferenceFirst,dispreferenceFirst,-0.7331378299120235,#TRIAL,#PARTICIPANTID,(based on tag),TestResponseTarget_p1_inverse,1364,bugipe,#TRIALTEMPLATE,166112,#PARTBLOCKS,#ALLBLOCKS,Devoicing,57,p,NonFinal,#PART,#CORRECT
35,#EXPTID,DispreferenceFirst,dispreferenceFirst,-0.777000777000777,#TRIAL,#PARTICIPANTID,(based on tag),TestResponseTarget_p1_inverse,1287,bugib,#TRIALTEMPLATE,167541,#PARTBLOCKS,#ALLBLOCKS,Voicing,58,b,Final,#PART,#CORRECT
36,#EXPTID,DispreferenceFirst,dispreferenceFirst,-0.6153846153846154,#TRIAL,#PARTICIPANTID,(based on tag),TestResponseTarget_p1_inverse,1625,potib,#TRIALTEMPLATE,169311,#PARTBLOCKS,#ALLBLOCKS,Voicing,59,b,Final,#PART,#CORRECT
37,#EXPTID,DispreferenceFirst,dispreferenceFirst,-0.8216926869350862,#TRIAL,#PARTICIPANTID,(based on tag),TestResponseTarget_p1_inverse,1217,goteb,#TRIALTEMPLATE,170721,#PARTBLOCKS,#ALLBLOCKS,Voicing,60,b,Final,#PART,#CORRECT
38,#EXPTID,DispreferenceFirst,dispreferenceFirst,-0.9149130832570905,#TRIAL,#PARTICIPANTID,(based on tag),TestResponseTarget_p1_inverse,1093,todub,#TRIALTEMPLATE,172001,#PARTBLOCKS,#ALLBLOCKS,Voicing,61,b,Final,#PART,#CORRECT
39,#EXPTID,DispreferenceFirst,dispreferenceFirst,-0.7616146230007617,#TRIAL,#PARTICIPANTID,(based on tag),TestResponseTarget_p1_inverse,1313,degope,#TRIALTEMPLATE,173470,#PARTBLOCKS,#ALLBLOCKS,Devoicing,62,p,NonFinal,#PART,#CORRECT
40,#EXPTID,DispreferenceFirst,dispreferenceFirst,-1.0298661174047374,#TRIAL,#PARTICIPANTID,(based on tag),TestResponseTarget_p1_inverse,971,dikeb,#TRIALTEMPLATE,174610,#PARTBLOCKS,#ALLBLOCKS,Voicing,63,b,Final,#PART,#CORRECT
41,#EXPTID,DispreferenceFirst,dispreferenceFirst,-1.1933174224343674,#TRIAL,#PARTICIPANTID,(based on tag),TestResponseTarget_p1_inverse,838,pidob,#TRIALTEMPLATE,175600,#PARTBLOCKS,#ALLBLOCKS,Voicing,64,b,Final,#PART,#CORRECT
42,#EXPTID,DispreferenceFirst,dispreferenceFirst,-1.203369434416366,#TRIAL,#PARTICIPANTID,(based on tag),TestResponseTarget_p1_inverse,831,bogeb,#TRIALTEMPLATE,176660,#PARTBLOCKS,#ALLBLOCKS,Voicing,65,b,Final,#PART,#CORRECT
43,#EXPTID,DispreferenceFirst,dispreferenceFirst,-0.8688097306689835,#TRIAL,#PARTICIPANTID,(based on tag),TestResponseTarget_p1_inverse,1151,gutope,#TRIALTEMPLATE,178039,#PARTBLOCKS,#ALLBLOCKS,Devoicing,66,p,NonFinal,#PART,#CORRECT
44,#EXPTID,DispreferenceFirst,dispreferenceFirst,-0.8084074373484236,#TRIAL,#PARTICIPANTID,(based on tag),TestResponseTarget_p1_inverse,1237,tekupe,#TRIALTEMPLATE,179529,#PARTBLOCKS,#ALLBLOCKS,Devoicing,67,p,NonFinal,#PART,#CORRECT
45,#EXPTID,DispreferenceFirst,dispreferenceFirst,-0.8382229673093042,#TRIAL,#PARTICIPANTID,(based on tag),TestResponseTarget_p1_inverse,1193,bidope,#TRIALTEMPLATE,180889,#PARTBLOCKS,#ALLBLOCKS,Devoicing,68,p,NonFinal,#PART,#CORRECT
46,#EXPTID,DispreferenceFirst,dispreferenceFirst,-1.0224948875255624,#TRIAL,#PARTICIPANTID,(based on tag),TestResponseTarget_p1_inverse,978,bidob,#TRIALTEMPLATE,182039,#PARTBLOCKS,#ALLBLOCKS,Voicing,69,b,Final,#PART,#CORRECT
47,#EXPTID,DispreferenceFirst,dispreferenceFirst,-0.7423904974016332,#TRIAL,#PARTICIPANTID,(based on tag),TestResponseTarget_p1_inverse,1347,pidope,#TRIALTEMPLATE,183538,#PARTBLOCKS,#ALLBLOCKS,Devoicing,70,p,NonFinal,#PART,#CORRECT
48,#EXPTID,DispreferenceFirst,dispreferenceFirst,-0.9041591320072333,#TRIAL,#PARTICIPANTID,(based on tag),TestResponseTarget_p1_inverse,1106,potipe,#TRIALTEMPLATE,184788,#PARTBLOCKS,#ALLBLOCKS,Devoicing,71,p,NonFinal,#PART,#CORRECT
49,#EXPTID,DispreferenceFirst,dispreferenceFirst,-0.7299270072992701,#TRIAL,#PARTICIPANTID,(based on tag),TestResponseTarget_p1_inverse,1370,gotepe,#TRIALTEMPLATE,186458,#PARTBLOCKS,#ALLBLOCKS,Devoicing,72,p,NonFinal,#PART,#CORRECT
50,#EXPTID,DispreferenceFirst,dispreferenceFirst,-0.78125,#TRIAL,#PARTICIPANTID,(based on tag),TestResponseTarget_p1_inverse,1280,dikepe,#TRIALTEMPLATE,187878,#PARTBLOCKS,#ALLBLOCKS,Devoicing,73,p,NonFinal,#PART,#CORRECT
51,#EXPTID,DispreferenceFirst,dispreferenceFirst,-0.8051529790660226,#TRIAL,#PARTICIPANTID,(based on tag),TestResponseTarget_p1_inverse,1242,pigepe,#TRIALTEMPLATE,189277,#PARTBLOCKS,#ALLBLOCKS,Devoicing,74,p,NonFinal,#PART,#CORRECT
52,#EXPTID,DispreferenceFirst,dispreferenceFirst,-0.7880220646178093,#TRIAL,#PARTICIPANTID,(based on tag),TestResponseTarget_p1_inverse,1269,dogib,#TRIALTEMPLATE,190737,#PARTBLOCKS,#ALLBLOCKS,Voicing,75,b,Final,#PART,#CORRECT
53,#EXPTID,DispreferenceFirst,dispreferenceFirst,-0.8865248226950354,#TRIAL,#PARTICIPANTID,(based on tag),TestResponseTarget_p1_inverse,1128,todib,#TRIALTEMPLATE,192057,#PARTBLOCKS,#ALLBLOCKS,Voicing,76,b,Final,#PART,#CORRECT
54,#EXPTID,DispreferenceFirst,dispreferenceFirst,-0.7604562737642585,#TRIAL,#PARTICIPANTID,(based on tag),TestResponseTarget_p1_inverse,1315,dogipe,#TRIALTEMPLATE,193577,#PARTBLOCKS,#ALLBLOCKS,Devoicing,77,p,NonFinal,#PART,#CORRECT
55,#EXPTID,DispreferenceFirst,dispreferenceFirst,-0.9624639076034649,#TRIAL,#PARTICIPANTID,(based on tag),TestResponseTarget_p1_inverse,1039,gutob,#TRIALTEMPLATE,194786,#PARTBLOCKS,#ALLBLOCKS,Voicing,78,b,Final,#PART,#CORRECT
56,#EXPTID,DispreferenceFirst,dispreferenceFirst,-0.8084074373484236,#TRIAL,#PARTICIPANTID,(based on tag),TestResponseTarget_p1_inverse,1237,todipe,#TRIALTEMPLATE,196166,#PARTBLOCKS,#ALLBLOCKS,Devoicing,79,p,NonFinal,#PART,#CORRECT
57,#EXPTID,DispreferenceFirst,dispreferenceFirst,-0.8264462809917356,#TRIAL,#PARTICIPANTID,(based on tag),TestResponseTarget_p1_inverse,1210,todupe,#TRIALTEMPLATE,197566,#PARTBLOCKS,#ALLBLOCKS,Devoicing,80,p,NonFinal,#PART,#CORRECT
58,#EXPTID,DispreferenceFirst,dispreferenceFirst,-1.0,#TRIAL,#PARTICIPANTID,(based on tag),TestResponseTarget_p1_inverse,1000,pigeb,#TRIALTEMPLATE,198736,#PARTBLOCKS,#ALLBLOCKS,Voicing,81,b,Final,#PART,#CORRECT
59,#EXPTID,DispreferenceFirst,dispreferenceFirst,-0.8920606601248885,#TRIAL,#PARTICIPANTID,(based on tag),TestResponseTarget_p1_inverse,1121,dokupe,#TRIALTEMPLATE,200016,#PARTBLOCKS,#ALLBLOCKS,Devoicing,82,p,NonFinal,#PART,#CORRECT
60,#EXPTID,DispreferenceFirst,dispreferenceFirst,-0.9049773755656109,#TRIAL,#PARTICIPANTID,(based on tag),TestResponseTarget_p1_inverse,1105,bikub,#TRIALTEMPLATE,201425,#PARTBLOCKS,#ALLBLOCKS,Voicing,83,b,Final,#PART,#CORRECT
61,#EXPTID,DispreferenceFirst,dispreferenceFirst,-0.8169934640522876,#TRIAL,#PARTICIPANTID,(based on tag),TestResponseTarget_p1_inverse,1224,bogepe,#TRIALTEMPLATE,202815,#PARTBLOCKS,#ALLBLOCKS,Devoicing,84,p,NonFinal,#PART,#CORRECT
62,#EXPTID,DispreferenceFirst,dispreferenceFirst,-0.9689922480620154,#TRIAL,#PARTICIPANTID,(based on tag),TestResponseTarget_p1_inverse,1032,tekub,#TRIALTEMPLATE,203995,#PARTBLOCKS,#ALLBLOCKS,Voicing,85,b,Final,#PART,#CORRECT
63,#EXPTID,DispreferenceFirst,dispreferenceFirst,-1.0471204188481675,#TRIAL,#PARTICIPANTID,(based on tag),TestResponseTarget_p1_inverse,955,dokub,#TRIALTEMPLATE,205095,#PARTBLOCKS,#ALLBLOCKS,Voicing,86,b,Final,#PART,#CORRECT
64,#EXPTID,DispreferenceFirst,dispreferenceFirst,-0.9587727708533078,#TRIAL,#PARTICIPANTID,(based on tag),TestResponseTarget_p1_inverse,1043,degob,#TRIALTEMPLATE,206284,#PARTBLOCKS,#ALLBLOCKS,Voicing,87,b,Final,#PART,#CORRECT
65,#EXPTID,DispreferenceFirst,dispreferenceFirst,-0.7117437722419929,#TRIAL,#PARTICIPANTID,(based on tag),TestResponseTarget_p1_inverse,1405,bikube,#TRIALTEMPLATE,207844,#PARTBLOCKS,#ALLBLOCKS,Devoicing,88,p,NonFinal,#PART,#CORRECT
66,#EXPTID,DispreferenceFirst,dispreferenceFirst,-0.04851542790607413,#TRIAL,#PARTICIPANTID,(any response),TestResponseTarget_p1_inverse,20612, ,#TRIALTEMPLATE,227051,#PARTBLOCKS,#ALLBLOCKS,Devoicing,89,,NonFinal,#PART,#CORRECT
67,#EXPTID,DispreferenceFirst,dispreferenceFirst,-0.7204610951008645,#TRIAL,#PARTICIPANTID,(based on tag),TestResponseTarget_p1_inverse,1388,tekupe,#TRIALTEMPLATE,228620,#PARTBLOCKS,#ALLBLOCKS,Devoicing,90,p,NonFinal,#PART,#CORRECT
68,#EXPTID,DispreferenceFirst,dispreferenceFirst,-1.016260162601626,#TRIAL,#PARTICIPANTID,(based on tag),TestResponseTarget_p1_inverse,984,bugib,#TRIALTEMPLATE,229750,#PARTBLOCKS,#ALLBLOCKS,Voicing,91,b,Final,#PART,#CORRECT
69,#EXPTID,DispreferenceFirst,dispreferenceFirst,-0.8045052292839904,#TRIAL,#PARTICIPANTID,(based on tag),TestResponseTarget_p1_inverse,1243,todipe,#TRIALTEMPLATE,231150,#PARTBLOCKS,#ALLBLOCKS,Devoicing,92,p,NonFinal,#PART,#CORRECT
70,#EXPTID,DispreferenceFirst,dispreferenceFirst,-0.8481764206955047,#TRIAL,#PARTICIPANTID,(based on tag),TestResponseTarget_p1_inverse,1179,bidob,#TRIALTEMPLATE,232499,#PARTBLOCKS,#ALLBLOCKS,Voicing,93,b,Final,#PART,#CORRECT
71,#EXPTID,DispreferenceFirst,dispreferenceFirst,-0.7446016381236039,#TRIAL,#PARTICIPANTID,(based on tag),TestResponseTarget_p1_inverse,1343,pidope,#TRIALTEMPLATE,233999,#PARTBLOCKS,#ALLBLOCKS,Devoicing,94,p,NonFinal,#PART,#CORRECT
72,#EXPTID,DispreferenceFirst,dispreferenceFirst,-0.7616146230007617,#TRIAL,#PARTICIPANTID,(based on tag),TestResponseTarget_p1_inverse,1313,bogepe,#TRIALTEMPLATE,235499,#PARTBLOCKS,#ALLBLOCKS,Devoicing,95,p,NonFinal,#PART,#CORRECT
73,#EXPTID,DispreferenceFirst,dispreferenceFirst,-0.7830853563038371,#TRIAL,#PARTICIPANTID,(based on tag),TestResponseTarget_p1_inverse,1277,bidope,#TRIALTEMPLATE,236979,#PARTBLOCKS,#ALLBLOCKS,Devoicing,96,p,NonFinal,#PART,#CORRECT
74,#EXPTID,DispreferenceFirst,dispreferenceFirst,-0.8613264427217916,#TRIAL,#PARTICIPANTID,(based on tag),TestResponseTarget_p1_inverse,1161,bugipe,#TRIALTEMPLATE,238288,#PARTBLOCKS,#ALLBLOCKS,Devoicing,97,p,NonFinal,#PART,#CORRECT
75,#EXPTID,DispreferenceFirst,dispreferenceFirst,-0.9523809523809523,#TRIAL,#PARTICIPANTID,(based on tag),TestResponseTarget_p1_inverse,1050,todib,#TRIALTEMPLATE,239588,#PARTBLOCKS,#ALLBLOCKS,Voicing,98,b,Final,#PART,#CORRECT
76,#EXPTID,DispreferenceFirst,dispreferenceFirst,-0.8598452278589854,#TRIAL,#PARTICIPANTID,(based on tag),TestResponseTarget_p1_inverse,1163,degope,#TRIALTEMPLATE,240928,#PARTBLOCKS,#ALLBLOCKS,Devoicing,99,p,NonFinal,#PART,#CORRECT
77,#EXPTID,DispreferenceFirst,dispreferenceFirst,-0.8488964346349746,#TRIAL,#PARTICIPANTID,(based on tag),TestResponseTarget_p1_inverse,1178,dogipe,#TRIALTEMPLATE,242348,#PARTBLOCKS,#ALLBLOCKS,Devoicing,100,p,NonFinal,#PART,#CORRECT
78,#EXPTID,DispreferenceFirst,dispreferenceFirst,-1.0471204188481675,#TRIAL,#PARTICIPANTID,(based on tag),TestResponseTarget_p1_inverse,955,dokub,#TRIALTEMPLATE,243537,#PARTBLOCKS,#ALLBLOCKS,Voicing,101,b,Final,#PART,#CORRECT
79,#EXPTID,DispreferenceFirst,dispreferenceFirst,-0.8764241893076249,#TRIAL,#PARTICIPANTID,(based on tag),TestResponseTarget_p1_inverse,1141,dokupe,#TRIALTEMPLATE,244887,#PARTBLOCKS,#ALLBLOCKS,Devoicing,102,p,NonFinal,#PART,#CORRECT
80,#EXPTID,DispreferenceFirst,dispreferenceFirst,-0.6684491978609626,#TRIAL,#PARTICIPANTID,(based on tag),TestResponseTarget_p1_inverse,1496,potib,#TRIALTEMPLATE,246657,#PARTBLOCKS,#ALLBLOCKS,Voicing,103,b,Final,#PART,#CORRECT
81,#EXPTID,DispreferenceFirst,dispreferenceFirst,-0.9940357852882704,#TRIAL,#PARTICIPANTID,(based on tag),TestResponseTarget_p1_inverse,1006,gutob,#TRIALTEMPLATE,247807,#PARTBLOCKS,#ALLBLOCKS,Voicing,104,b,Final,#PART,#CORRECT
82,#EXPTID,DispreferenceFirst,dispreferenceFirst,-37.03703703703704,#TRIAL,#PARTICIPANTID,(based on tag),TestResponseTarget_p1_inverse,27,todub,#TRIALTEMPLATE,247996,#PARTBLOCKS,#ALLBLOCKS,Voicing,105,b,Final,#PART,#CORRECT
83,#EXPTID,DispreferenceFirst,dispreferenceFirst,-1.1560693641618498,#TRIAL,#PARTICIPANTID,(based on tag),TestResponseTarget_p1_inverse,865,dogib,#TRIALTEMPLATE,249886,#PARTBLOCKS,#ALLBLOCKS,Voicing,106,b,Final,#PART,#CORRECT
84,#EXPTID,DispreferenceFirst,dispreferenceFirst,-0.8849557522123894,#TRIAL,#PARTICIPANTID,(based on tag),TestResponseTarget_p1_inverse,1130,pidob,#TRIALTEMPLATE,251196,#PARTBLOCKS,#ALLBLOCKS,Voicing,107,b,Final,#PART,#CORRECT
85,#EXPTID,DispreferenceFirst,dispreferenceFirst,-0.9276437847866419,#TRIAL,#PARTICIPANTID,(based on tag),TestResponseTarget_p1_inverse,1078,goteb,#TRIALTEMPLATE,252426,#PARTBLOCKS,#ALLBLOCKS,Voicing,108,b,Final,#PART,#CORRECT
86,#EXPTID,DispreferenceFirst,dispreferenceFirst,-1.0822510822510822,#TRIAL,#PARTICIPANTID,(based on tag),TestResponseTarget_p1_inverse,924,dikeb,#TRIALTEMPLATE,253495,#PARTBLOCKS,#ALLBLOCKS,Voicing,109,b,Final,#PART,#CORRECT
87,#EXPTID,DispreferenceFirst,dispreferenceFirst,-0.9328358208955224,#TRIAL,#PARTICIPANTID,(based on tag),TestResponseTarget_p1_inverse,1072,degob,#TRIALTEMPLATE,254745,#PARTBLOCKS,#ALLBLOCKS,Voicing,110,b,Final,#PART,#CORRECT
88,#EXPTID,DispreferenceFirst,dispreferenceFirst,-0.9041591320072333,#TRIAL,#PARTICIPANTID,(based on tag),TestResponseTarget_p1_inverse,1106,bikub,#TRIALTEMPLATE,256065,#PARTBLOCKS,#ALLBLOCKS,Voicing,111,b,Final,#PART,#CORRECT
89,#EXPTID,DispreferenceFirst,dispreferenceFirst,-0.8771929824561403,#TRIAL,#PARTICIPANTID,(based on tag),TestResponseTarget_p1_inverse,1140,todupe,#TRIALTEMPLATE,257355,#PARTBLOCKS,#ALLBLOCKS,Devoicing,112,p,NonFinal,#PART,#CORRECT
90,#EXPTID,DispreferenceFirst,dispreferenceFirst,-0.8382229673093042,#TRIAL,#PARTICIPANTID,(based on tag),TestResponseTarget_p1_inverse,1193,gutope,#TRIALTEMPLATE,258784,#PARTBLOCKS,#ALLBLOCKS,Devoicing,113,p,NonFinal,#PART,#CORRECT
91,#EXPTID,DispreferenceFirst,dispreferenceFirst,-0.9337068160597572,#TRIAL,#PARTICIPANTID,(based on tag),TestResponseTarget_p1_inverse,1071,dikepe,#TRIALTEMPLATE,260064,#PARTBLOCKS,#ALLBLOCKS,Devoicing,114,p,NonFinal,#PART,#CORRECT
92,#EXPTID,DispreferenceFirst,dispreferenceFirst,-1.0204081632653061,#TRIAL,#PARTICIPANTID,(based on tag),TestResponseTarget_p1_inverse,980,tekub,#TRIALTEMPLATE,261354,#PARTBLOCKS,#ALLBLOCKS,Voicing,115,b,Final,#PART,#CORRECT
93,#EXPTID,DispreferenceFirst,dispreferenceFirst,-1.0845986984815619,#TRIAL,#PARTICIPANTID,(based on tag),TestResponseTarget_p1_inverse,922,pigeb,#TRIALTEMPLATE,262424,#PARTBLOCKS,#ALLBLOCKS,Voicing,116,b,Final,#PART,#CORRECT
94,#EXPTID,DispreferenceFirst,dispreferenceFirst,-0.78125,#TRIAL,#PARTICIPANTID,(based on tag),TestResponseTarget_p1_inverse,1280,pigepe,#TRIALTEMPLATE,263864,#PARTBLOCKS,#ALLBLOCKS,Devoicing,117,p,NonFinal,#PART,#CORRECT
95,#EXPTID,DispreferenceFirst,dispreferenceFirst,-0.8673026886383348,#TRIAL,#PARTICIPANTID,(based on tag),TestResponseTarget_p1_inverse,1153,gotepe,#TRIALTEMPLATE,265163,#PARTBLOCKS,#ALLBLOCKS,Devoicing,118,p,NonFinal,#PART,#CORRECT
96,#EXPTID,DispreferenceFirst,dispreferenceFirst,-0.9718172983479106,#TRIAL,#PARTICIPANTID,(based on tag),TestResponseTarget_p1_inverse,1029,bogeb,#TRIALTEMPLATE,266373,#PARTBLOCKS,#ALLBLOCKS,Voicing,119,b,Final,#PART,#CORRECT
97,#EXPTID,DispreferenceFirst,dispreferenceFirst,-0.7547169811320755,#TRIAL,#PARTICIPANTID,(based on tag),TestResponseTarget_p1_inverse,1325,bikube,#TRIALTEMPLATE,267853,#PARTBLOCKS,#ALLBLOCKS,Devoicing,120,p,NonFinal,#PART,#CORRECT
98,#EXPTID,DispreferenceFirst,dispreferenceFirst,-0.9727626459143969,#TRIAL,#PARTICIPANTID,(based on tag),TestResponseTarget_p1_inverse,1028,potipe,#TRIALTEMPLATE,269043,#PARTBLOCKS,#ALLBLOCKS,Devoicing,121,p,NonFinal,#PART,#CORRECT
99,#EXPTID,DispreferenceFirst,dispreferenceFirst,-0.08616232982939859,#TRIAL,#PARTICIPANTID,(any response),TestResponseTarget_p1_inverse,11606, ,#TRIALTEMPLATE,279621,#PARTBLOCKS,#ALLBLOCKS,Devoicing,122,,NonFinal,#PART,#CORRECT
100,#EXPTID,DispreferenceFirst,dispreferenceFirst,-0.9363295880149812,#TRIAL,#PARTICIPANTID,(based on tag),TestResponseTarget_p1_inverse,1068,goteb,#TRIALTEMPLATE,280861,#PARTBLOCKS,#ALLBLOCKS,Voicing,123,b,Final,#PART,#CORRECT
101,#EXPTID,DispreferenceFirst,dispreferenceFirst,-1.0615711252653928,#TRIAL,#PARTICIPANTID,(based on tag),TestResponseTarget_p1_inverse,942,todib,#TRIALTEMPLATE,281960,#PARTBLOCKS,#ALLBLOCKS,Voicing,124,b,Final,#PART,#CORRECT
102,#EXPTID,DispreferenceFirst,dispreferenceFirst,-0.8169934640522876,#TRIAL,#PARTICIPANTID,(based on tag),TestResponseTarget_p1_inverse,1224,dokupe,#TRIALTEMPLATE,283330,#PARTBLOCKS,#ALLBLOCKS,Devoicing,125,p,NonFinal,#PART,#CORRECT
103,#EXPTID,DispreferenceFirst,dispreferenceFirst,-0.9259259259259259,#TRIAL,#PARTICIPANTID,(based on tag),TestResponseTarget_p1_inverse,1080,pigepe,#TRIALTEMPLATE,284600,#PARTBLOCKS,#ALLBLOCKS,Devoicing,126,p,NonFinal,#PART,#CORRECT
104,#EXPTID,DispreferenceFirst,dispreferenceFirst,-1.0427528675703859,#TRIAL,#PARTICIPANTID,(based on tag),TestResponseTarget_p1_inverse,959,gutob,#TRIALTEMPLATE,285859,#PARTBLOCKS,#ALLBLOCKS,Voicing,127,b,Final,#PART,#CORRECT
105,#EXPTID,DispreferenceFirst,dispreferenceFirst,-1.1123470522803114,#TRIAL,#PARTICIPANTID,(based on tag),TestResponseTarget_p1_inverse,899,bikub,#TRIALTEMPLATE,286919,#PARTBLOCKS,#ALLBLOCKS,Voicing,128,b,Final,#PART,#CORRECT
106,#EXPTID,DispreferenceFirst,dispreferenceFirst,-0.9794319294809011,#TRIAL,#PARTICIPANTID,(based on tag),TestResponseTarget_p1_inverse,1021,potib,#TRIALTEMPLATE,288149,#PARTBLOCKS,#ALLBLOCKS,Voicing,129,b,Final,#PART,#CORRECT
107,#EXPTID,DispreferenceFirst,dispreferenceFirst,-0.8920606601248885,#TRIAL,#PARTICIPANTID,(based on tag),TestResponseTarget_p1_inverse,1121,tekupe,#TRIALTEMPLATE,289469,#PARTBLOCKS,#ALLBLOCKS,Devoicing,130,p,NonFinal,#PART,#CORRECT
108,#EXPTID,DispreferenceFirst,dispreferenceFirst,-0.9302325581395349,#TRIAL,#PARTICIPANTID,(based on tag),TestResponseTarget_p1_inverse,1075,pidope,#TRIALTEMPLATE,290809,#PARTBLOCKS,#ALLBLOCKS,Devoicing,131,p,NonFinal,#PART,#CORRECT
109,#EXPTID,DispreferenceFirst,dispreferenceFirst,-0.8810572687224669,#TRIAL,#PARTICIPANTID,(based on tag),TestResponseTarget_p1_inverse,1135,bugipe,#TRIALTEMPLATE,292298,#PARTBLOCKS,#ALLBLOCKS,Devoicing,132,p,NonFinal,#PART,#CORRECT
110,#EXPTID,DispreferenceFirst,dispreferenceFirst,-0.9442870632672332,#TRIAL,#PARTICIPANTID,(based on tag),TestResponseTarget_p1_inverse,1059,dokub,#TRIALTEMPLATE,293638,#PARTBLOCKS,#ALLBLOCKS,Voicing,133,b,Final,#PART,#CORRECT
111,#EXPTID,DispreferenceFirst,dispreferenceFirst,-1.1389521640091116,#TRIAL,#PARTICIPANTID,(based on tag),TestResponseTarget_p1_inverse,878,bogeb,#TRIALTEMPLATE,294658,#PARTBLOCKS,#ALLBLOCKS,Voicing,134,b,Final,#PART,#CORRECT
112,#EXPTID,DispreferenceFirst,dispreferenceFirst,-1.1820330969267139,#TRIAL,#PARTICIPANTID,(based on tag),TestResponseTarget_p1_inverse,846,dikeb,#TRIALTEMPLATE,295728,#PARTBLOCKS,#ALLBLOCKS,Voicing,135,b,Final,#PART,#CORRECT
113,#EXPTID,DispreferenceFirst,dispreferenceFirst,-0.819000819000819,#TRIAL,#PARTICIPANTID,(based on tag),TestResponseTarget_p1_inverse,1221,degope,#TRIALTEMPLATE,297147,#PARTBLOCKS,#ALLBLOCKS,Devoicing,136,p,NonFinal,#PART,#CORRECT
114,#EXPTID,DispreferenceFirst,dispreferenceFirst,-0.8810572687224669,#TRIAL,#PARTICIPANTID,(based on tag),TestResponseTarget_p1_inverse,1135,bugib,#TRIALTEMPLATE,298467,#PARTBLOCKS,#ALLBLOCKS,Voicing,137,b,Final,#PART,#CORRECT
115,#EXPTID,DispreferenceFirst,dispreferenceFirst,-0.8375209380234506,#TRIAL,#PARTICIPANTID,(based on tag),TestResponseTarget_p1_inverse,1194,bidope,#TRIALTEMPLATE,299807,#PARTBLOCKS,#ALLBLOCKS,Devoicing,138,p,NonFinal,#PART,#CORRECT
116,#EXPTID,DispreferenceFirst,dispreferenceFirst,-0.9514747859181731,#TRIAL,#PARTICIPANTID,(based on tag),TestResponseTarget_p1_inverse,1051,degob,#TRIALTEMPLATE,301027,#PARTBLOCKS,#ALLBLOCKS,Voicing,139,b,Final,#PART,#CORRECT
117,#EXPTID,DispreferenceFirst,dispreferenceFirst,-1.0695187165775402,#TRIAL,#PARTICIPANTID,(based on tag),TestResponseTarget_p1_inverse,935,todub,#TRIALTEMPLATE,302117,#PARTBLOCKS,#ALLBLOCKS,Voicing,140,b,Final,#PART,#CORRECT
118,#EXPTID,DispreferenceFirst,dispreferenceFirst,-1.3157894736842106,#TRIAL,#PARTICIPANTID,(based on tag),TestResponseTarget_p1_inverse,760,pidob,#TRIALTEMPLATE,303036,#PARTBLOCKS,#ALLBLOCKS,Voicing,141,b,Final,#PART,#CORRECT
119,#EXPTID,DispreferenceFirst,dispreferenceFirst,-0.8665511265164645,#TRIAL,#PARTICIPANTID,(based on tag),TestResponseTarget_p1_inverse,1154,potipe,#TRIALTEMPLATE,304496,#PARTBLOCKS,#ALLBLOCKS,Devoicing,142,p,NonFinal,#PART,#CORRECT
120,#EXPTID,DispreferenceFirst,dispreferenceFirst,-0.7524454477050414,#TRIAL,#PARTICIPANTID,(based on tag),TestResponseTarget_p1_inverse,1329,dogipe,#TRIALTEMPLATE,306076,#PARTBLOCKS,#ALLBLOCKS,Devoicing,143,p,NonFinal,#PART,#CORRECT
121,#EXPTID,DispreferenceFirst,dispreferenceFirst,-0.8976660682226212,#TRIAL,#PARTICIPANTID,(based on tag),TestResponseTarget_p1_inverse,1114,pigeb,#TRIALTEMPLATE,307335,#PARTBLOCKS,#ALLBLOCKS,Voicing,144,b,Final,#PART,#CORRECT
122,#EXPTID,DispreferenceFirst,dispreferenceFirst,-0.7824726134585289,#TRIAL,#PARTICIPANTID,(based on tag),TestResponseTarget_p1_inverse,1278,todupe,#TRIALTEMPLATE,308755,#PARTBLOCKS,#ALLBLOCKS,Devoicing,145,p,NonFinal,#PART,#CORRECT
123,#EXPTID,DispreferenceFirst,dispreferenceFirst,-0.8787346221441125,#TRIAL,#PARTICIPANTID,(based on tag),TestResponseTarget_p1_inverse,1138,gotepe,#TRIALTEMPLATE,310035,#PARTBLOCKS,#ALLBLOCKS,Devoicing,146,p,NonFinal,#PART,#CORRECT
124,#EXPTID,DispreferenceFirst,dispreferenceFirst,-0.8756567425569177,#TRIAL,#PARTICIPANTID,(based on tag),TestResponseTarget_p1_inverse,1142,dikepe,#TRIALTEMPLATE,311415,#PARTBLOCKS,#ALLBLOCKS,Devoicing,147,p,NonFinal,#PART,#CORRECT
125,#EXPTID,DispreferenceFirst,dispreferenceFirst,-0.9416195856873822,#TRIAL,#PARTICIPANTID,(based on tag),TestResponseTarget_p1_inverse,1062,tekub,#TRIALTEMPLATE,312714,#PARTBLOCKS,#ALLBLOCKS,Voicing,148,b,Final,#PART,#CORRECT
126,#EXPTID,DispreferenceFirst,dispreferenceFirst,-0.8123476848090982,#TRIAL,#PARTICIPANTID,(based on tag),TestResponseTarget_p1_inverse,1231,todipe,#TRIALTEMPLATE,314104,#PARTBLOCKS,#ALLBLOCKS,Devoicing,149,p,NonFinal,#PART,#CORRECT
127,#EXPTID,DispreferenceFirst,dispreferenceFirst,-0.8525149190110827,#TRIAL,#PARTICIPANTID,(based on tag),TestResponseTarget_p1_inverse,1173,gutope,#TRIALTEMPLATE,315464,#PARTBLOCKS,#ALLBLOCKS,Devoicing,150,p,NonFinal,#PART,#CORRECT
128,#EXPTID,DispreferenceFirst,dispreferenceFirst,-0.7849293563579278,#TRIAL,#PARTICIPANTID,(based on tag),TestResponseTarget_p1_inverse,1274,bogepe,#TRIALTEMPLATE,316974,#PARTBLOCKS,#ALLBLOCKS,Devoicing,151,p,NonFinal,#PART,#CORRECT
129,#EXPTID,DispreferenceFirst,dispreferenceFirst,-1.0080645161290323,#TRIAL,#PARTICIPANTID,(based on tag),TestResponseTarget_p1_inverse,992,bidob,#TRIALTEMPLATE,318124,#PARTBLOCKS,#ALLBLOCKS,Voicing,152,b,Final,#PART,#CORRECT
130,#EXPTID,DispreferenceFirst,dispreferenceFirst,-0.7727975270479135,#TRIAL,#PARTICIPANTID,(based on tag),TestResponseTarget_p1_inverse,1294,bikube,#TRIALTEMPLATE,319563,#PARTBLOCKS,#ALLBLOCKS,Devoicing,153,p,NonFinal,#PART,#CORRECT
131,#EXPTID,DispreferenceFirst,dispreferenceFirst,-0.8460236886632826,#TRIAL,#PARTICIPANTID,(based on tag),TestResponseTarget_p1_inverse,1182,dogib,#TRIALTEMPLATE,320893,#PARTBLOCKS,#ALLBLOCKS,Voicing,154,b,Final,#PART,#CORRECT
132,#EXPTID,DispreferenceFirst,dispreferenceFirst,-0.12514078338130397,#TRIAL,#PARTICIPANTID,(any response),TestResponseTarget_p1_inverse,7991, ,#TRIALTEMPLATE,327702,#PARTBLOCKS,#ALLBLOCKS,Devoicing,155,,NonFinal,#PART,#CORRECT
133,#EXPTID,DispreferenceFirst,dispreferenceFirst,-0.9727626459143969,#TRIAL,#PARTICIPANTID,(based on tag),TestResponseTarget_p1_inverse,1028,todub,#TRIALTEMPLATE,328901,#PARTBLOCKS,#ALLBLOCKS,Voicing,156,b,Final,#PART,#CORRECT
134,#EXPTID,DispreferenceFirst,dispreferenceFirst,-0.7987220447284346,#TRIAL,#PARTICIPANTID,(based on tag),TestResponseTarget_p1_inverse,1252,bikube,#TRIALTEMPLATE,330341,#PARTBLOCKS,#ALLBLOCKS,Devoicing,157,p,NonFinal,#PART,#CORRECT
135,#EXPTID,DispreferenceFirst,dispreferenceFirst,-1.0405827263267429,#TRIAL,#PARTICIPANTID,(based on tag),TestResponseTarget_p1_inverse,961,gutob,#TRIALTEMPLATE,331501,#PARTBLOCKS,#ALLBLOCKS,Voicing,158,b,Final,#PART,#CORRECT
136,#EXPTID,DispreferenceFirst,dispreferenceFirst,-0.7530120481927711,#TRIAL,#PARTICIPANTID,(based on tag),TestResponseTarget_p1_inverse,1328,potipe,#TRIALTEMPLATE,332981,#PARTBLOCKS,#ALLBLOCKS,Devoicing,159,p,NonFinal,#PART,#CORRECT
137,#EXPTID,DispreferenceFirst,dispreferenceFirst,-0.7092198581560284,#TRIAL,#PARTICIPANTID,(based on tag),TestResponseTarget_p1_inverse,1410,degob,#TRIALTEMPLATE,334540,#PARTBLOCKS,#ALLBLOCKS,Voicing,160,b,Final,#PART,#CORRECT
138,#EXPTID,DispreferenceFirst,dispreferenceFirst,-0.724112961622013,#TRIAL,#PARTICIPANTID,(based on tag),TestResponseTarget_p1_inverse,1381,pidope,#TRIALTEMPLATE,336070,#PARTBLOCKS,#ALLBLOCKS,Devoicing,161,p,NonFinal,#PART,#CORRECT
139,#EXPTID,DispreferenceFirst,dispreferenceFirst,-0.8787346221441125,#TRIAL,#PARTICIPANTID,(based on tag),TestResponseTarget_p1_inverse,1138,todipe,#TRIALTEMPLATE,337350,#PARTBLOCKS,#ALLBLOCKS,Devoicing,162,p,NonFinal,#PART,#CORRECT
140,#EXPTID,DispreferenceFirst,dispreferenceFirst,-0.916590284142988,#TRIAL,#PARTICIPANTID,(based on tag),TestResponseTarget_p1_inverse,1091,bogeb,#TRIALTEMPLATE,338739,#PARTBLOCKS,#ALLBLOCKS,Voicing,163,b,Final,#PART,#CORRECT
141,#EXPTID,DispreferenceFirst,dispreferenceFirst,-1.0204081632653061,#TRIAL,#PARTICIPANTID,(based on tag),TestResponseTarget_p1_inverse,980,dikeb,#TRIALTEMPLATE,339860,#PARTBLOCKS,#ALLBLOCKS,Voicing,164,b,Final,#PART,#CORRECT
142,#EXPTID,DispreferenceFirst,dispreferenceFirst,-0.6548788474132285,#TRIAL,#PARTICIPANTID,(based on tag),TestResponseTarget_p1_inverse,1527,gutope,#TRIALTEMPLATE,341579,#PARTBLOCKS,#ALLBLOCKS,Devoicing,165,p,NonFinal,#PART,#CORRECT
143,#EXPTID,DispreferenceFirst,dispreferenceFirst,-0.7955449482895783,#TRIAL,#PARTICIPANTID,(based on tag),TestResponseTarget_p1_inverse,1257,tekupe,#TRIALTEMPLATE,343039,#PARTBLOCKS,#ALLBLOCKS,Devoicing,166,p,NonFinal,#PART,#CORRECT
144,#EXPTID,DispreferenceFirst,dispreferenceFirst,-0.6958942240779401,#TRIAL,#PARTICIPANTID,(based on tag),TestResponseTarget_p1_inverse,1437,dikepe,#TRIALTEMPLATE,344619,#PARTBLOCKS,#ALLBLOCKS,Devoicing,167,p,NonFinal,#PART,#CORRECT
145,#EXPTID,DispreferenceFirst,dispreferenceFirst,-1.0050251256281406,#TRIAL,#PARTICIPANTID,(based on tag),TestResponseTarget_p1_inverse,995,pigeb,#TRIALTEMPLATE,345769,#PARTBLOCKS,#ALLBLOCKS,Voicing,168,b,Final,#PART,#CORRECT
146,#EXPTID,DispreferenceFirst,dispreferenceFirst,-1.0638297872340425,#TRIAL,#PARTICIPANTID,(based on tag),TestResponseTarget_p1_inverse,940,todib,#TRIALTEMPLATE,346858,#PARTBLOCKS,#ALLBLOCKS,Voicing,169,b,Final,#PART,#CORRECT
147,#EXPTID,DispreferenceFirst,dispreferenceFirst,-0.8431703204047217,#TRIAL,#PARTICIPANTID,(based on tag),TestResponseTarget_p1_inverse,1186,dogipe,#TRIALTEMPLATE,348198,#PARTBLOCKS,#ALLBLOCKS,Devoicing,170,p,NonFinal,#PART,#CORRECT
148,#EXPTID,DispreferenceFirst,dispreferenceFirst,-0.8650519031141869,#TRIAL,#PARTICIPANTID,(based on tag),TestResponseTarget_p1_inverse,1156,bidob,#TRIALTEMPLATE,349578,#PARTBLOCKS,#ALLBLOCKS,Voicing,171,b,Final,#PART,#CORRECT
149,#EXPTID,DispreferenceFirst,dispreferenceFirst,-0.9578544061302682,#TRIAL,#PARTICIPANTID,(based on tag),TestResponseTarget_p1_inverse,1044,goteb,#TRIALTEMPLATE,350768,#PARTBLOCKS,#ALLBLOCKS,Voicing,172,b,Final,#PART,#CORRECT
150,#EXPTID,DispreferenceFirst,dispreferenceFirst,-1.0493179433368311,#TRIAL,#PARTICIPANTID,(based on tag),TestResponseTarget_p1_inverse,953,potib,#TRIALTEMPLATE,351867,#PARTBLOCKS,#ALLBLOCKS,Voicing,173,b,Final,#PART,#CORRECT
151,#EXPTID,DispreferenceFirst,dispreferenceFirst,-1.183431952662722,#TRIAL,#PARTICIPANTID,(based on tag),TestResponseTarget_p1_inverse,845,dokub,#TRIALTEMPLATE,352867,#PARTBLOCKS,#ALLBLOCKS,Voicing,174,b,Final,#PART,#CORRECT
152,#EXPTID,DispreferenceFirst,dispreferenceFirst,-0.8110300081103001,#TRIAL,#PARTICIPANTID,(based on tag),TestResponseTarget_p1_inverse,1233,bidope,#TRIALTEMPLATE,354297,#PARTBLOCKS,#ALLBLOCKS,Devoicing,175,p,NonFinal,#PART,#CORRECT
153,#EXPTID,DispreferenceFirst,dispreferenceFirst,-0.9433962264150944,#TRIAL,#PARTICIPANTID,(based on tag),TestResponseTarget_p1_inverse,1060,dokupe,#TRIALTEMPLATE,355527,#PARTBLOCKS,#ALLBLOCKS,Devoicing,176,p,NonFinal,#PART,#CORRECT
154,#EXPTID,DispreferenceFirst,dispreferenceFirst,-1.0050251256281406,#TRIAL,#PARTICIPANTID,(based on tag),TestResponseTarget_p1_inverse,995,bugib,#TRIALTEMPLATE,356876,#PARTBLOCKS,#ALLBLOCKS,Voicing,177,b,Final,#PART,#CORRECT
155,#EXPTID,DispreferenceFirst,dispreferenceFirst,-1.1806375442739079,#TRIAL,#PARTICIPANTID,(based on tag),TestResponseTarget_p1_inverse,847,dogib,#TRIALTEMPLATE,357916,#PARTBLOCKS,#ALLBLOCKS,Voicing,178,b,Final,#PART,#CORRECT
156,#EXPTID,DispreferenceFirst,dispreferenceFirst,-0.9267840593141798,#TRIAL,#PARTICIPANTID,(based on tag),TestResponseTarget_p1_inverse,1079,gotepe,#TRIALTEMPLATE,359196,#PARTBLOCKS,#ALLBLOCKS,Devoicing,179,p,NonFinal,#PART,#CORRECT
157,#EXPTID,DispreferenceFirst,dispreferenceFirst,-0.9852216748768473,#TRIAL,#PARTICIPANTID,(based on tag),TestResponseTarget_p1_inverse,1015,bugipe,#TRIALTEMPLATE,360466,#PARTBLOCKS,#ALLBLOCKS,Devoicing,180,p,NonFinal,#PART,#CORRECT
158,#EXPTID,DispreferenceFirst,dispreferenceFirst,-0.8084074373484236,#TRIAL,#PARTICIPANTID,(based on tag),TestResponseTarget_p1_inverse,1237,pigepe,#TRIALTEMPLATE,362106,#PARTBLOCKS,#ALLBLOCKS,Devoicing,181,p,NonFinal,#PART,#CORRECT
159,#EXPTID,DispreferenceFirst,dispreferenceFirst,-0.6406149903907752,#TRIAL,#PARTICIPANTID,(based on tag),TestResponseTarget_p1_inverse,1561,tekub,#TRIALTEMPLATE,363855,#PARTBLOCKS,#ALLBLOCKS,Voicing,182,b,Final,#PART,#CORRECT
160,#EXPTID,DispreferenceFirst,dispreferenceFirst,-0.7680491551459293,#TRIAL,#PARTICIPANTID,(based on tag),TestResponseTarget_p1_inverse,1302,degope,#TRIALTEMPLATE,365385,#PARTBLOCKS,#ALLBLOCKS,Devoicing,183,p,NonFinal,#PART,#CORRECT
161,#EXPTID,DispreferenceFirst,dispreferenceFirst,-0.7256894049346879,#TRIAL,#PARTICIPANTID,(based on tag),TestResponseTarget_p1_inverse,1378,bikub,#TRIALTEMPLATE,366905,#PARTBLOCKS,#ALLBLOCKS,Voicing,184,b,Final,#PART,#CORRECT
162,#EXPTID,DispreferenceFirst,dispreferenceFirst,-0.601684717208183,#TRIAL,#PARTICIPANTID,(based on tag),TestResponseTarget_p1_inverse,1662,bogepe,#TRIALTEMPLATE,368754,#PARTBLOCKS,#ALLBLOCKS,Devoicing,185,p,NonFinal,#PART,#CORRECT
163,#EXPTID,DispreferenceFirst,dispreferenceFirst,-0.7173601147776184,#TRIAL,#PARTICIPANTID,(based on tag),TestResponseTarget_p1_inverse,1394,todupe,#TRIALTEMPLATE,370334,#PARTBLOCKS,#ALLBLOCKS,Devoicing,186,p,NonFinal,#PART,#CORRECT
164,#EXPTID,DispreferenceFirst,dispreferenceFirst,-0.5608524957936063,#TRIAL,#PARTICIPANTID,(based on tag),TestResponseTarget_p1_inverse,1783,pidob,#TRIALTEMPLATE,372264,#PARTBLOCKS,#ALLBLOCKS,Voicing,187,b,Final,#PART,#CORRECT
165,#EXPTID,DispreferenceFirst,dispreferenceFirst,-0.076103500761035,#TRIAL,#PARTICIPANTID,(any response),TestResponseTarget_p1_inverse,13140, ,#TRIALTEMPLATE,383621,#PARTBLOCKS,#ALLBLOCKS,Devoicing,188,,NonFinal,#PART,#CORRECT
166,#EXPTID,DispreferenceFirst,dispreferenceFirst,-0.6868131868131868,#TRIAL,#PARTICIPANTID,(based on tag),TestResponseTarget_p1_inverse,1456,pigebe,#TRIALTEMPLATE,385261,#PARTBLOCKS,#ALLBLOCKS,Voicing,189,b,NonFinal,#PART,#CORRECT
167,#EXPTID,DispreferenceFirst,dispreferenceFirst,-0.6779661016949152,#TRIAL,#PARTICIPANTID,(based on tag),TestResponseTarget_p1_inverse,1475,bidop,#TRIALTEMPLATE,386891,#PARTBLOCKS,#ALLBLOCKS,Devoicing,190,p,Final,#PART,#CORRECT
168,#EXPTID,DispreferenceFirst,dispreferenceFirst,-0.45599635202918376,#TRIAL,#PARTICIPANTID,(based on tag),TestResponseTarget_p1_inverse,2193,todibe,#TRIALTEMPLATE,389291,#PARTBLOCKS,#ALLBLOCKS,Voicing,191,b,NonFinal,#PART,#CORRECT
169,#EXPTID,DispreferenceFirst,dispreferenceFirst,-0.5521811154058531,#TRIAL,#PARTICIPANTID,(based on tag),TestResponseTarget_p1_inverse,1811,gotebe,#TRIALTEMPLATE,391290,#PARTBLOCKS,#ALLBLOCKS,Voicing,192,b,NonFinal,#PART,#CORRECT
170,#EXPTID,DispreferenceFirst,dispreferenceFirst,-0.5382131324004306,#TRIAL,#PARTICIPANTID,(based on tag),TestResponseTarget_p1_inverse,1858,dogip,#TRIALTEMPLATE,393360,#PARTBLOCKS,#ALLBLOCKS,Devoicing,193,p,Final,#PART,#CORRECT
171,#EXPTID,DispreferenceFirst,dispreferenceFirst,-0.6574621959237343,#TRIAL,#PARTICIPANTID,(based on tag),TestResponseTarget_p1_inverse,1521,bogebe,#TRIALTEMPLATE,395069,#PARTBLOCKS,#ALLBLOCKS,Voicing,194,b,NonFinal,#PART,#CORRECT
172,#EXPTID,DispreferenceFirst,dispreferenceFirst,-0.746268656716418,#TRIAL,#PARTICIPANTID,(based on tag),TestResponseTarget_p1_inverse,1340,pidop,#TRIALTEMPLATE,396549,#PARTBLOCKS,#ALLBLOCKS,Devoicing,195,p,Final,#PART,#CORRECT
173,#EXPTID,DispreferenceFirst,dispreferenceFirst,-0.8680555555555556,#TRIAL,#PARTICIPANTID,(based on tag),TestResponseTarget_p1_inverse,1152,gutop,#TRIALTEMPLATE,397899,#PARTBLOCKS,#ALLBLOCKS,Devoicing,196,p,Final,#PART,#CORRECT
174,#EXPTID,DispreferenceFirst,dispreferenceFirst,-0.6501950585175552,#TRIAL,#PARTICIPANTID,(based on tag),TestResponseTarget_p1_inverse,1538,tekube,#TRIALTEMPLATE,399589,#PARTBLOCKS,#ALLBLOCKS,Voicing,197,b,NonFinal,#PART,#CORRECT
175,#EXPTID,DispreferenceFirst,dispreferenceFirst,-0.7336757153338225,#TRIAL,#PARTICIPANTID,(based on tag),TestResponseTarget_p1_inverse,1363,bugibe,#TRIALTEMPLATE,401098,#PARTBLOCKS,#ALLBLOCKS,Voicing,198,b,NonFinal,#PART,#CORRECT
176,#EXPTID,DispreferenceFirst,dispreferenceFirst,-0.9578544061302682,#TRIAL,#PARTICIPANTID,(based on tag),TestResponseTarget_p1_inverse,1044,pigep,#TRIALTEMPLATE,402288,#PARTBLOCKS,#ALLBLOCKS,Devoicing,199,p,Final,#PART,#CORRECT
177,#EXPTID,DispreferenceFirst,dispreferenceFirst,-0.6747638326585695,#TRIAL,#PARTICIPANTID,(based on tag),TestResponseTarget_p1_inverse,1482,todube,#TRIALTEMPLATE,403918,#PARTBLOCKS,#ALLBLOCKS,Voicing,200,b,NonFinal,#PART,#CORRECT
178,#EXPTID,DispreferenceFirst,dispreferenceFirst,-0.6793478260869565,#TRIAL,#PARTICIPANTID,(based on tag),TestResponseTarget_p1_inverse,1472,bikube,#TRIALTEMPLATE,405548,#PARTBLOCKS,#ALLBLOCKS,Voicing,201,b,NonFinal,#PART,#CORRECT
179,#EXPTID,DispreferenceFirst,dispreferenceFirst,-0.648508430609598,#TRIAL,#PARTICIPANTID,(based on tag),TestResponseTarget_p1_inverse,1542,potibe,#TRIALTEMPLATE,407277,#PARTBLOCKS,#ALLBLOCKS,Voicing,202,b,NonFinal,#PART,#CORRECT
180,#EXPTID,DispreferenceFirst,dispreferenceFirst,-0.8250825082508251,#TRIAL,#PARTICIPANTID,(based on tag),TestResponseTarget_p1_inverse,1212,dokube,#TRIALTEMPLATE,408687,#PARTBLOCKS,#ALLBLOCKS,Voicing,203,b,NonFinal,#PART,#CORRECT
181,#EXPTID,DispreferenceFirst,dispreferenceFirst,-0.7662835249042146,#TRIAL,#PARTICIPANTID,(based on tag),TestResponseTarget_p1_inverse,1305,todip,#TRIALTEMPLATE,410137,#PARTBLOCKS,#ALLBLOCKS,Devoicing,204,p,Final,#PART,#CORRECT
182,#EXPTID,DispreferenceFirst,dispreferenceFirst,-0.8680555555555556,#TRIAL,#PARTICIPANTID,(based on tag),TestResponseTarget_p1_inverse,1152,bugip,#TRIALTEMPLATE,411436,#PARTBLOCKS,#ALLBLOCKS,Devoicing,205,p,Final,#PART,#CORRECT
183,#EXPTID,DispreferenceFirst,dispreferenceFirst,-0.32894736842105265,#TRIAL,#PARTICIPANTID,(based on tag),TestResponseTarget_p1_inverse,3040,pidobe,#TRIALTEMPLATE,414636,#PARTBLOCKS,#ALLBLOCKS,Voicing,206,b,NonFinal,#PART,#CORRECT
184,#EXPTID,DispreferenceFirst,dispreferenceFirst,-0.687757909215956,#TRIAL,#PARTICIPANTID,(based on tag),TestResponseTarget_p1_inverse,1454,gutobe,#TRIALTEMPLATE,416265,#PARTBLOCKS,#ALLBLOCKS,Voicing,207,b,NonFinal,#PART,#CORRECT
185,#EXPTID,DispreferenceFirst,dispreferenceFirst,-0.7168458781362007,#TRIAL,#PARTICIPANTID,(based on tag),TestResponseTarget_p1_inverse,1395,dogibe,#TRIALTEMPLATE,417805,#PARTBLOCKS,#ALLBLOCKS,Voicing,208,b,NonFinal,#PART,#CORRECT
186,#EXPTID,DispreferenceFirst,dispreferenceFirst,-0.8802816901408451,#TRIAL,#PARTICIPANTID,(based on tag),TestResponseTarget_p1_inverse,1136,todup,#TRIALTEMPLATE,419145,#PARTBLOCKS,#ALLBLOCKS,Devoicing,209,p,Final,#PART,#CORRECT
187,#EXPTID,DispreferenceFirst,dispreferenceFirst,-0.9930486593843099,#TRIAL,#PARTICIPANTID,(based on tag),TestResponseTarget_p1_inverse,1007,bikup,#TRIALTEMPLATE,420315,#PARTBLOCKS,#ALLBLOCKS,Devoicing,210,p,Final,#PART,#CORRECT
188,#EXPTID,DispreferenceFirst,dispreferenceFirst,-0.7485029940119761,#TRIAL,#PARTICIPANTID,(based on tag),TestResponseTarget_p1_inverse,1336,degobe,#TRIALTEMPLATE,421794,#PARTBLOCKS,#ALLBLOCKS,Voicing,211,b,NonFinal,#PART,#CORRECT
189,#EXPTID,DispreferenceFirst,dispreferenceFirst,-0.8680555555555556,#TRIAL,#PARTICIPANTID,(based on tag),TestResponseTarget_p1_inverse,1152,potip,#TRIALTEMPLATE,423104,#PARTBLOCKS,#ALLBLOCKS,Devoicing,212,p,Final,#PART,#CORRECT
190,#EXPTID,DispreferenceFirst,dispreferenceFirst,-0.8291873963515755,#TRIAL,#PARTICIPANTID,(based on tag),TestResponseTarget_p1_inverse,1206,bidobe,#TRIALTEMPLATE,424454,#PARTBLOCKS,#ALLBLOCKS,Voicing,213,b,NonFinal,#PART,#CORRECT
191,#EXPTID,DispreferenceFirst,dispreferenceFirst,-0.5714285714285714,#TRIAL,#PARTICIPANTID,(based on tag),TestResponseTarget_p1_inverse,1750,dokup,#TRIALTEMPLATE,426344,#PARTBLOCKS,#ALLBLOCKS,Devoicing,214,p,Final,#PART,#CORRECT
192,#EXPTID,DispreferenceFirst,dispreferenceFirst,-0.7905138339920948,#TRIAL,#PARTICIPANTID,(based on tag),TestResponseTarget_p1_inverse,1265,degop,#TRIALTEMPLATE,427813,#PARTBLOCKS,#ALLBLOCKS,Devoicing,215,p,Final,#PART,#CORRECT
193,#EXPTID,DispreferenceFirst,dispreferenceFirst,-0.9033423667570009,#TRIAL,#PARTICIPANTID,(based on tag),TestResponseTarget_p1_inverse,1107,gotep,#TRIALTEMPLATE,429093,#PARTBLOCKS,#ALLBLOCKS,Devoicing,216,p,Final,#PART,#CORRECT
194,#EXPTID,DispreferenceFirst,dispreferenceFirst,-0.8826125330979699,#TRIAL,#PARTICIPANTID,(based on tag),TestResponseTarget_p1_inverse,1133,tekup,#TRIALTEMPLATE,430383,#PARTBLOCKS,#ALLBLOCKS,Devoicing,217,p,Final,#PART,#CORRECT
195,#EXPTID,DispreferenceFirst,dispreferenceFirst,-0.9363295880149812,#TRIAL,#PARTICIPANTID,(based on tag),TestResponseTarget_p1_inverse,1068,dikep,#TRIALTEMPLATE,431603,#PARTBLOCKS,#ALLBLOCKS,Devoicing,218,p,Final,#PART,#CORRECT
196,#EXPTID,DispreferenceFirst,dispreferenceFirst,-0.4631773969430292,#TRIAL,#PARTICIPANTID,(based on tag),TestResponseTarget_p1_inverse,2159,dikebe,#TRIALTEMPLATE,433922,#PARTBLOCKS,#ALLBLOCKS,Voicing,219,b,NonFinal,#PART,#CORRECT
197,#EXPTID,DispreferenceFirst,dispreferenceFirst,-1.091703056768559,#TRIAL,#PARTICIPANTID,(based on tag),TestResponseTarget_p1_inverse,916,bogep,#TRIALTEMPLATE,435022,#PARTBLOCKS,#ALLBLOCKS,Devoicing,220,p,Final,#PART,#CORRECT
198,#EXPTID,DispreferenceFirst,dispreferenceFirst,-0.06696129637069774,#TRIAL,#PARTICIPANTID,(any response),TestResponseTarget_p1_inverse,14934, ,#TRIALTEMPLATE,449040,#PARTBLOCKS,#ALLBLOCKS,Devoicing,221,,NonFinal,#PART,#CORRECT
199,#EXPTID,DispreferenceFirst,dispreferenceFirst,-0.5200208008320333,#TRIAL,#PARTICIPANTID,(based on tag),TestResponseTarget_p1_inverse,1923,todibe,#TRIALTEMPLATE,451129,#PARTBLOCKS,#ALLBLOCKS,Voicing,222,b,NonFinal,#PART,#CORRECT
200,#EXPTID,DispreferenceFirst,dispreferenceFirst,-0.9242144177449169,#TRIAL,#PARTICIPANTID,(based on tag),TestResponseTarget_p1_inverse,1082,bidop,#TRIALTEMPLATE,452399,#PARTBLOCKS,#ALLBLOCKS,Devoicing,223,p,Final,#PART,#CORRECT
201,#EXPTID,DispreferenceFirst,dispreferenceFirst,-0.9891196834817013,#TRIAL,#PARTICIPANTID,(based on tag),TestResponseTarget_p1_inverse,1011,pigep,#TRIALTEMPLATE,453608,#PARTBLOCKS,#ALLBLOCKS,Devoicing,224,p,Final,#PART,#CORRECT
202,#EXPTID,DispreferenceFirst,dispreferenceFirst,-0.8880994671403197,#TRIAL,#PARTICIPANTID,(based on tag),TestResponseTarget_p1_inverse,1126,tekup,#TRIALTEMPLATE,454928,#PARTBLOCKS,#ALLBLOCKS,Devoicing,225,p,Final,#PART,#CORRECT
203,#EXPTID,DispreferenceFirst,dispreferenceFirst,-0.7092198581560284,#TRIAL,#PARTICIPANTID,(based on tag),TestResponseTarget_p1_inverse,1410,pigebe,#TRIALTEMPLATE,456498,#PARTBLOCKS,#ALLBLOCKS,Voicing,226,b,NonFinal,#PART,#CORRECT
204,#EXPTID,DispreferenceFirst,dispreferenceFirst,-0.7189072609633357,#TRIAL,#PARTICIPANTID,(based on tag),TestResponseTarget_p1_inverse,1391,bogep,#TRIALTEMPLATE,458038,#PARTBLOCKS,#ALLBLOCKS,Devoicing,227,p,Final,#PART,#CORRECT
205,#EXPTID,DispreferenceFirst,dispreferenceFirst,-0.7342143906020558,#TRIAL,#PARTICIPANTID,(based on tag),TestResponseTarget_p1_inverse,1362,dogibe,#TRIALTEMPLATE,459587,#PARTBLOCKS,#ALLBLOCKS,Voicing,228,b,NonFinal,#PART,#CORRECT
206,#EXPTID,DispreferenceFirst,dispreferenceFirst,-0.8888888888888888,#TRIAL,#PARTICIPANTID,(based on tag),TestResponseTarget_p1_inverse,1125,dogip,#TRIALTEMPLATE,460857,#PARTBLOCKS,#ALLBLOCKS,Devoicing,229,p,Final,#PART,#CORRECT
207,#EXPTID,DispreferenceFirst,dispreferenceFirst,-0.7220216606498195,#TRIAL,#PARTICIPANTID,(based on tag),TestResponseTarget_p1_inverse,1385,dikep,#TRIALTEMPLATE,462387,#PARTBLOCKS,#ALLBLOCKS,Devoicing,230,p,Final,#PART,#CORRECT
208,#EXPTID,DispreferenceFirst,dispreferenceFirst,-0.831946755407654,#TRIAL,#PARTICIPANTID,(based on tag),TestResponseTarget_p1_inverse,1202,dokube,#TRIALTEMPLATE,463726,#PARTBLOCKS,#ALLBLOCKS,Voicing,231,b,NonFinal,#PART,#CORRECT
209,#EXPTID,DispreferenceFirst,dispreferenceFirst,-0.942507068803016,#TRIAL,#PARTICIPANTID,(based on tag),TestResponseTarget_p1_inverse,1061,bugip,#TRIALTEMPLATE,464946,#PARTBLOCKS,#ALLBLOCKS,Devoicing,232,p,Final,#PART,#CORRECT
210,#EXPTID,DispreferenceFirst,dispreferenceFirst,-0.9276437847866419,#TRIAL,#PARTICIPANTID,(based on tag),TestResponseTarget_p1_inverse,1078,gutop,#TRIALTEMPLATE,466166,#PARTBLOCKS,#ALLBLOCKS,Devoicing,233,p,Final,#PART,#CORRECT
211,#EXPTID,DispreferenceFirst,dispreferenceFirst,-0.49677098857426727,#TRIAL,#PARTICIPANTID,(based on tag),TestResponseTarget_p1_inverse,2013,bogebe,#TRIALTEMPLATE,468326,#PARTBLOCKS,#ALLBLOCKS,Voicing,234,b,NonFinal,#PART,#CORRECT
212,#EXPTID,DispreferenceFirst,dispreferenceFirst,-0.5668934240362812,#TRIAL,#PARTICIPANTID,(based on tag),TestResponseTarget_p1_inverse,1764,bikup,#TRIALTEMPLATE,470285,#PARTBLOCKS,#ALLBLOCKS,Devoicing,235,p,Final,#PART,#CORRECT
213,#EXPTID,DispreferenceFirst,dispreferenceFirst,-0.5136106831022085,#TRIAL,#PARTICIPANTID,(based on tag),TestResponseTarget_p1_inverse,1947,bikube,#TRIALTEMPLATE,472375,#PARTBLOCKS,#ALLBLOCKS,Voicing,236,b,NonFinal,#PART,#CORRECT
214,#EXPTID,DispreferenceFirst,dispreferenceFirst,-0.7751937984496124,#TRIAL,#PARTICIPANTID,(based on tag),TestResponseTarget_p1_inverse,1290,gutobe,#TRIALTEMPLATE,473805,#PARTBLOCKS,#ALLBLOCKS,Voicing,237,b,NonFinal,#PART,#CORRECT
215,#EXPTID,DispreferenceFirst,dispreferenceFirst,-0.779423226812159,#TRIAL,#PARTICIPANTID,(based on tag),TestResponseTarget_p1_inverse,1283,potibe,#TRIALTEMPLATE,475275,#PARTBLOCKS,#ALLBLOCKS,Voicing,238,b,NonFinal,#PART,#CORRECT
216,#EXPTID,DispreferenceFirst,dispreferenceFirst,-0.6983240223463687,#TRIAL,#PARTICIPANTID,(based on tag),TestResponseTarget_p1_inverse,1432,gotep,#TRIALTEMPLATE,476874,#PARTBLOCKS,#ALLBLOCKS,Devoicing,239,p,Final,#PART,#CORRECT
217,#EXPTID,DispreferenceFirst,dispreferenceFirst,-0.8431703204047217,#TRIAL,#PARTICIPANTID,(based on tag),TestResponseTarget_p1_inverse,1186,degop,#TRIALTEMPLATE,478254,#PARTBLOCKS,#ALLBLOCKS,Devoicing,240,p,Final,#PART,#CORRECT
218,#EXPTID,DispreferenceFirst,dispreferenceFirst,-0.8718395815170009,#TRIAL,#PARTICIPANTID,(based on tag),TestResponseTarget_p1_inverse,1147,todip,#TRIALTEMPLATE,479544,#PARTBLOCKS,#ALLBLOCKS,Devoicing,241,p,Final,#PART,#CORRECT
219,#EXPTID,DispreferenceFirst,dispreferenceFirst,-0.8944543828264758,#TRIAL,#PARTICIPANTID,(based on tag),TestResponseTarget_p1_inverse,1118,dokup,#TRIALTEMPLATE,480823,#PARTBLOCKS,#ALLBLOCKS,Devoicing,242,p,Final,#PART,#CORRECT
220,#EXPTID,DispreferenceFirst,dispreferenceFirst,-0.4800768122899664,#TRIAL,#PARTICIPANTID,(based on tag),TestResponseTarget_p1_inverse,2083,tekube,#TRIALTEMPLATE,483063,#PARTBLOCKS,#ALLBLOCKS,Voicing,243,b,NonFinal,#PART,#CORRECT
221,#EXPTID,DispreferenceFirst,dispreferenceFirst,-0.5787037037037037,#TRIAL,#PARTICIPANTID,(based on tag),TestResponseTarget_p1_inverse,1728,dikebe,#TRIALTEMPLATE,484933,#PARTBLOCKS,#ALLBLOCKS,Voicing,244,b,NonFinal,#PART,#CORRECT
222,#EXPTID,DispreferenceFirst,dispreferenceFirst,-0.4750593824228028,#TRIAL,#PARTICIPANTID,(based on tag),TestResponseTarget_p1_inverse,2105,gotebe,#TRIALTEMPLATE,487212,#PARTBLOCKS,#ALLBLOCKS,Voicing,245,b,NonFinal,#PART,#CORRECT
223,#EXPTID,DispreferenceFirst,dispreferenceFirst,-0.5555555555555556,#TRIAL,#PARTICIPANTID,(based on tag),TestResponseTarget_p1_inverse,1800,bugibe,#TRIALTEMPLATE,489192,#PARTBLOCKS,#ALLBLOCKS,Voicing,246,b,NonFinal,#PART,#CORRECT
224,#EXPTID,DispreferenceFirst,dispreferenceFirst,-0.8547008547008547,#TRIAL,#PARTICIPANTID,(based on tag),TestResponseTarget_p1_inverse,1170,degobe,#TRIALTEMPLATE,490562,#PARTBLOCKS,#ALLBLOCKS,Voicing,247,b,NonFinal,#PART,#CORRECT
225,#EXPTID,DispreferenceFirst,dispreferenceFirst,-0.693000693000693,#TRIAL,#PARTICIPANTID,(based on tag),TestResponseTarget_p1_inverse,1443,pidobe,#TRIALTEMPLATE,492181,#PARTBLOCKS,#ALLBLOCKS,Voicing,248,b,NonFinal,#PART,#CORRECT
226,#EXPTID,DispreferenceFirst,dispreferenceFirst,-0.9337068160597572,#TRIAL,#PARTICIPANTID,(based on tag),TestResponseTarget_p1_inverse,1071,pidop,#TRIALTEMPLATE,493411,#PARTBLOCKS,#ALLBLOCKS,Devoicing,249,p,Final,#PART,#CORRECT
227,#EXPTID,DispreferenceFirst,dispreferenceFirst,-0.7662835249042146,#TRIAL,#PARTICIPANTID,(based on tag),TestResponseTarget_p1_inverse,1305,todube,#TRIALTEMPLATE,494881,#PARTBLOCKS,#ALLBLOCKS,Voicing,250,b,NonFinal,#PART,#CORRECT
228,#EXPTID,DispreferenceFirst,dispreferenceFirst,-0.727802037845706,#TRIAL,#PARTICIPANTID,(based on tag),TestResponseTarget_p1_inverse,1374,bidobe,#TRIALTEMPLATE,496410,#PARTBLOCKS,#ALLBLOCKS,Voicing,251,b,NonFinal,#PART,#CORRECT
229,#EXPTID,DispreferenceFirst,dispreferenceFirst,-43.47826086956522,#TRIAL,#PARTICIPANTID,(based on tag),TestResponseTarget_p1_inverse,23,potip,#TRIALTEMPLATE,496581,#PARTBLOCKS,#ALLBLOCKS,Devoicing,252,p,Final,#PART,#CORRECT
230,#EXPTID,DispreferenceFirst,dispreferenceFirst,-0.3250975292587776,#TRIAL,#PARTICIPANTID,(based on tag),TestResponseTarget_p1_inverse,3076,todup,#TRIALTEMPLATE,500690,#PARTBLOCKS,#ALLBLOCKS,Devoicing,253,p,Final,#PART,#CORRECT
231,#EXPTID,DispreferenceFirst,dispreferenceFirst,-0.06805498843065197,#TRIAL,#PARTICIPANTID,(any response),TestResponseTarget_p1_inverse,14694, ,#TRIALTEMPLATE,512308,#PARTBLOCKS,#ALLBLOCKS,Devoicing,254,,NonFinal,#PART,#CORRECT
232,#EXPTID,DispreferenceFirst,dispreferenceFirst,-0.6925207756232687,#TRIAL,#PARTICIPANTID,(based on tag),TestResponseTarget_p1_inverse,1444,gotebe,#TRIALTEMPLATE,513917,#PARTBLOCKS,#ALLBLOCKS,Voicing,255,b,NonFinal,#PART,#CORRECT
233,#EXPTID,DispreferenceFirst,dispreferenceFirst,-1.0683760683760684,#TRIAL,#PARTICIPANTID,(based on tag),TestResponseTarget_p1_inverse,936,todup,#TRIALTEMPLATE,515037,#PARTBLOCKS,#ALLBLOCKS,Devoicing,256,p,Final,#PART,#CORRECT
234,#EXPTID,DispreferenceFirst,dispreferenceFirst,-0.45871559633027525,#TRIAL,#PARTICIPANTID,(based on tag),TestResponseTarget_p1_inverse,2180,bikup,#TRIALTEMPLATE,517407,#PARTBLOCKS,#ALLBLOCKS,Devoicing,257,p,Final,#PART,#CORRECT
235,#EXPTID,DispreferenceFirst,dispreferenceFirst,-0.5020080321285141,#TRIAL,#PARTICIPANTID,(based on tag),TestResponseTarget_p1_inverse,1992,bugibe,#TRIALTEMPLATE,519596,#PARTBLOCKS,#ALLBLOCKS,Voicing,258,b,NonFinal,#PART,#CORRECT
236,#EXPTID,DispreferenceFirst,dispreferenceFirst,-0.8944543828264758,#TRIAL,#PARTICIPANTID,(based on tag),TestResponseTarget_p1_inverse,1118,gotep,#TRIALTEMPLATE,520856,#PARTBLOCKS,#ALLBLOCKS,Devoicing,259,p,Final,#PART,#CORRECT
237,#EXPTID,DispreferenceFirst,dispreferenceFirst,-0.5396654074473827,#TRIAL,#PARTICIPANTID,(based on tag),TestResponseTarget_p1_inverse,1853,bogebe,#TRIALTEMPLATE,522866,#PARTBLOCKS,#ALLBLOCKS,Voicing,260,b,NonFinal,#PART,#CORRECT
238,#EXPTID,DispreferenceFirst,dispreferenceFirst,-0.7923930269413629,#TRIAL,#PARTICIPANTID,(based on tag),TestResponseTarget_p1_inverse,1262,dogip,#TRIALTEMPLATE,524325,#PARTBLOCKS,#ALLBLOCKS,Devoicing,261,p,Final,#PART,#CORRECT
239,#EXPTID,DispreferenceFirst,dispreferenceFirst,-0.44583147570218457,#TRIAL,#PARTICIPANTID,(based on tag),TestResponseTarget_p1_inverse,2243,dogibe,#TRIALTEMPLATE,526755,#PARTBLOCKS,#ALLBLOCKS,Voicing,262,b,NonFinal,#PART,#CORRECT
240,#EXPTID,DispreferenceFirst,dispreferenceFirst,-0.9149130832570905,#TRIAL,#PARTICIPANTID,(based on tag),TestResponseTarget_p1_inverse,1093,dikep,#TRIALTEMPLATE,528025,#PARTBLOCKS,#ALLBLOCKS,Devoicing,263,p,Final,#PART,#CORRECT
241,#EXPTID,DispreferenceFirst,dispreferenceFirst,-0.8382229673093042,#TRIAL,#PARTICIPANTID,(based on tag),TestResponseTarget_p1_inverse,1193,pigep,#TRIALTEMPLATE,529374,#PARTBLOCKS,#ALLBLOCKS,Devoicing,264,p,Final,#PART,#CORRECT
242,#EXPTID,DispreferenceFirst,dispreferenceFirst,-0.835421888053467,#TRIAL,#PARTICIPANTID,(based on tag),TestResponseTarget_p1_inverse,1197,gutop,#TRIALTEMPLATE,530734,#PARTBLOCKS,#ALLBLOCKS,Devoicing,265,p,Final,#PART,#CORRECT
243,#EXPTID,DispreferenceFirst,dispreferenceFirst,-0.5865102639296188,#TRIAL,#PARTICIPANTID,(based on tag),TestResponseTarget_p1_inverse,1705,pidop,#TRIALTEMPLATE,532594,#PARTBLOCKS,#ALLBLOCKS,Devoicing,266,p,Final,#PART,#CORRECT
244,#EXPTID,DispreferenceFirst,dispreferenceFirst,-0.4526935264825713,#TRIAL,#PARTICIPANTID,(based on tag),TestResponseTarget_p1_inverse,2209,bidop,#TRIALTEMPLATE,534974,#PARTBLOCKS,#ALLBLOCKS,Devoicing,267,p,Final,#PART,#CORRECT
245,#EXPTID,DispreferenceFirst,dispreferenceFirst,-0.5643340857787811,#TRIAL,#PARTICIPANTID,(based on tag),TestResponseTarget_p1_inverse,1772,bikube,#TRIALTEMPLATE,536983,#PARTBLOCKS,#ALLBLOCKS,Voicing,268,b,NonFinal,#PART,#CORRECT
246,#EXPTID,DispreferenceFirst,dispreferenceFirst,-0.8748906386701663,#TRIAL,#PARTICIPANTID,(based on tag),TestResponseTarget_p1_inverse,1143,todube,#TRIALTEMPLATE,538313,#PARTBLOCKS,#ALLBLOCKS,Voicing,269,b,NonFinal,#PART,#CORRECT
247,#EXPTID,DispreferenceFirst,dispreferenceFirst,-0.8968609865470852,#TRIAL,#PARTICIPANTID,(based on tag),TestResponseTarget_p1_inverse,1115,dokube,#TRIALTEMPLATE,539673,#PARTBLOCKS,#ALLBLOCKS,Voicing,270,b,NonFinal,#PART,#CORRECT
248,#EXPTID,DispreferenceFirst,dispreferenceFirst,-0.9267840593141798,#TRIAL,#PARTICIPANTID,(based on tag),TestResponseTarget_p1_inverse,1079,potibe,#TRIALTEMPLATE,540982,#PARTBLOCKS,#ALLBLOCKS,Voicing,271,b,NonFinal,#PART,#CORRECT
249,#EXPTID,DispreferenceFirst,dispreferenceFirst,-1.001001001001001,#TRIAL,#PARTICIPANTID,(based on tag),TestResponseTarget_p1_inverse,999,gutobe,#TRIALTEMPLATE,542262,#PARTBLOCKS,#ALLBLOCKS,Voicing,272,b,NonFinal,#PART,#CORRECT
250,#EXPTID,DispreferenceFirst,dispreferenceFirst,-0.929368029739777,#TRIAL,#PARTICIPANTID,(based on tag),TestResponseTarget_p1_inverse,1076,todip,#TRIALTEMPLATE,543642,#PARTBLOCKS,#ALLBLOCKS,Devoicing,273,p,Final,#PART,#CORRECT
251,#EXPTID,DispreferenceFirst,dispreferenceFirst,-0.8912655971479501,#TRIAL,#PARTICIPANTID,(based on tag),TestResponseTarget_p1_inverse,1122,bugip,#TRIALTEMPLATE,544962,#PARTBLOCKS,#ALLBLOCKS,Devoicing,274,p,Final,#PART,#CORRECT
252,#EXPTID,DispreferenceFirst,dispreferenceFirst,-1.0298661174047374,#TRIAL,#PARTICIPANTID,(based on tag),TestResponseTarget_p1_inverse,971,degop,#TRIALTEMPLATE,546131,#PARTBLOCKS,#ALLBLOCKS,Devoicing,275,p,Final,#PART,#CORRECT
253,#EXPTID,DispreferenceFirst,dispreferenceFirst,-0.5521811154058531,#TRIAL,#PARTICIPANTID,(based on tag),TestResponseTarget_p1_inverse,1811,pigebe,#TRIALTEMPLATE,548141,#PARTBLOCKS,#ALLBLOCKS,Voicing,276,b,NonFinal,#PART,#CORRECT
254,#EXPTID,DispreferenceFirst,dispreferenceFirst,-0.916590284142988,#TRIAL,#PARTICIPANTID,(based on tag),TestResponseTarget_p1_inverse,1091,dokup,#TRIALTEMPLATE,549411,#PARTBLOCKS,#ALLBLOCKS,Devoicing,277,p,Final,#PART,#CORRECT
255,#EXPTID,DispreferenceFirst,dispreferenceFirst,-1.0582010582010581,#TRIAL,#PARTICIPANTID,(based on tag),TestResponseTarget_p1_inverse,945,tekup,#TRIALTEMPLATE,550550,#PARTBLOCKS,#ALLBLOCKS,Devoicing,278,p,Final,#PART,#CORRECT
256,#EXPTID,DispreferenceFirst,dispreferenceFirst,-0.4526935264825713,#TRIAL,#PARTICIPANTID,(based on tag),TestResponseTarget_p1_inverse,2209,todibe,#TRIALTEMPLATE,552900,#PARTBLOCKS,#ALLBLOCKS,Voicing,279,b,NonFinal,#PART,#CORRECT
257,#EXPTID,DispreferenceFirst,dispreferenceFirst,-0.8554319931565441,#TRIAL,#PARTICIPANTID,(based on tag),TestResponseTarget_p1_inverse,1169,tekube,#TRIALTEMPLATE,554260,#PARTBLOCKS,#ALLBLOCKS,Voicing,280,b,NonFinal,#PART,#CORRECT
258,#EXPTID,DispreferenceFirst,dispreferenceFirst,-0.8787346221441125,#TRIAL,#PARTICIPANTID,(based on tag),TestResponseTarget_p1_inverse,1138,bidobe,#TRIALTEMPLATE,555610,#PARTBLOCKS,#ALLBLOCKS,Voicing,281,b,NonFinal,#PART,#CORRECT
259,#EXPTID,DispreferenceFirst,dispreferenceFirst,-0.8453085376162299,#TRIAL,#PARTICIPANTID,(based on tag),TestResponseTarget_p1_inverse,1183,degobe,#TRIALTEMPLATE,556989,#PARTBLOCKS,#ALLBLOCKS,Voicing,282,b,NonFinal,#PART,#CORRECT
260,#EXPTID,DispreferenceFirst,dispreferenceFirst,-0.8880994671403197,#TRIAL,#PARTICIPANTID,(based on tag),TestResponseTarget_p1_inverse,1126,pidobe,#TRIALTEMPLATE,558319,#PARTBLOCKS,#ALLBLOCKS,Voicing,283,b,NonFinal,#PART,#CORRECT
261,#EXPTID,DispreferenceFirst,dispreferenceFirst,-0.9433962264150944,#TRIAL,#PARTICIPANTID,(based on tag),TestResponseTarget_p1_inverse,1060,dikebe,#TRIALTEMPLATE,559639,#PARTBLOCKS,#ALLBLOCKS,Voicing,284,b,NonFinal,#PART,#CORRECT
262,#EXPTID,DispreferenceFirst,dispreferenceFirst,-1.1198208286674132,#TRIAL,#PARTICIPANTID,(based on tag),TestResponseTarget_p1_inverse,893,bogep,#TRIALTEMPLATE,560839,#PARTBLOCKS,#ALLBLOCKS,Devoicing,285,p,Final,#PART,#CORRECT
263,#EXPTID,DispreferenceFirst,dispreferenceFirst,-1.095290251916758,#TRIAL,#PARTICIPANTID,(based on tag),TestResponseTarget_p1_inverse,913,potip,#TRIALTEMPLATE,561928,#PARTBLOCKS,#ALLBLOCKS,Devoicing,286,p,Final,#PART,#CORRECT
264,#EXPTID,DispreferenceFirst,dispreferenceFirst,-0.4144218814753419,#TRIAL,#PARTICIPANTID,(any response),TestResponseTarget_p1_inverse,2413, ,#TRIALTEMPLATE,563428,#PARTBLOCKS,#ALLBLOCKS,Devoicing,287,,NonFinal,#PART,#CORRECT
265,#EXPTID,DispreferenceFirst,dispreferenceFirst,-0.7818608287724785,#TRIAL,#PARTICIPANTID,(based on tag),TestResponseTarget_p1_inverse,1279,bikup,#TRIALTEMPLATE,564888,#PARTBLOCKS,#ALLBLOCKS,Devoicing,288,p,Final,#PART,#CORRECT
266,#EXPTID,DispreferenceFirst,dispreferenceFirst,-0.8136696501220505,#TRIAL,#PARTICIPANTID,(based on tag),TestResponseTarget_p1_inverse,1229,degobe,#TRIALTEMPLATE,566278,#PARTBLOCKS,#ALLBLOCKS,Voicing,289,b,NonFinal,#PART,#CORRECT
267,#EXPTID,DispreferenceFirst,dispreferenceFirst,-1.0493179433368311,#TRIAL,#PARTICIPANTID,(based on tag),TestResponseTarget_p1_inverse,953,pidobe,#TRIALTEMPLATE,567427,#PARTBLOCKS,#ALLBLOCKS,Voicing,290,b,NonFinal,#PART,#CORRECT
268,#EXPTID,DispreferenceFirst,dispreferenceFirst,-1.0362694300518134,#TRIAL,#PARTICIPANTID,(based on tag),TestResponseTarget_p1_inverse,965,gotep,#TRIALTEMPLATE,568827,#PARTBLOCKS,#ALLBLOCKS,Devoicing,291,p,Final,#PART,#CORRECT
269,#EXPTID,DispreferenceFirst,dispreferenceFirst,-0.966183574879227,#TRIAL,#PARTICIPANTID,(based on tag),TestResponseTarget_p1_inverse,1035,dogip,#TRIALTEMPLATE,570037,#PARTBLOCKS,#ALLBLOCKS,Devoicing,292,p,Final,#PART,#CORRECT
270,#EXPTID,DispreferenceFirst,dispreferenceFirst,-0.9727626459143969,#TRIAL,#PARTICIPANTID,(based on tag),TestResponseTarget_p1_inverse,1028,degop,#TRIALTEMPLATE,571217,#PARTBLOCKS,#ALLBLOCKS,Devoicing,293,p,Final,#PART,#CORRECT
271,#EXPTID,DispreferenceFirst,dispreferenceFirst,-0.8149959250203749,#TRIAL,#PARTICIPANTID,(based on tag),TestResponseTarget_p1_inverse,1227,todibe,#TRIALTEMPLATE,572606,#PARTBLOCKS,#ALLBLOCKS,Voicing,294,b,NonFinal,#PART,#CORRECT
272,#EXPTID,DispreferenceFirst,dispreferenceFirst,-0.6476683937823834,#TRIAL,#PARTICIPANTID,(based on tag),TestResponseTarget_p1_inverse,1544,pigep,#TRIALTEMPLATE,574306,#PARTBLOCKS,#ALLBLOCKS,Devoicing,295,p,Final,#PART,#CORRECT
273,#EXPTID,DispreferenceFirst,dispreferenceFirst,-0.5313496280552603,#TRIAL,#PARTICIPANTID,(based on tag),TestResponseTarget_p1_inverse,1882,bidobe,#TRIALTEMPLATE,576386,#PARTBLOCKS,#ALLBLOCKS,Voicing,296,b,NonFinal,#PART,#CORRECT
274,#EXPTID,DispreferenceFirst,dispreferenceFirst,-0.594883997620464,#TRIAL,#PARTICIPANTID,(based on tag),TestResponseTarget_p1_inverse,1681,bogep,#TRIALTEMPLATE,578305,#PARTBLOCKS,#ALLBLOCKS,Devoicing,297,p,Final,#PART,#CORRECT
275,#EXPTID,DispreferenceFirst,dispreferenceFirst,-0.7440476190476191,#TRIAL,#PARTICIPANTID,(based on tag),TestResponseTarget_p1_inverse,1344,bidop,#TRIALTEMPLATE,579865,#PARTBLOCKS,#ALLBLOCKS,Devoicing,298,p,Final,#PART,#CORRECT
276,#EXPTID,DispreferenceFirst,dispreferenceFirst,-1.037344398340249,#TRIAL,#PARTICIPANTID,(based on tag),TestResponseTarget_p1_inverse,964,pidop,#TRIALTEMPLATE,580985,#PARTBLOCKS,#ALLBLOCKS,Devoicing,299,p,Final,#PART,#CORRECT
277,#EXPTID,DispreferenceFirst,dispreferenceFirst,-1.002004008016032,#TRIAL,#PARTICIPANTID,(based on tag),TestResponseTarget_p1_inverse,998,dikep,#TRIALTEMPLATE,582135,#PARTBLOCKS,#ALLBLOCKS,Devoicing,300,p,Final,#PART,#CORRECT
278,#EXPTID,DispreferenceFirst,dispreferenceFirst,-0.5467468562055768,#TRIAL,#PARTICIPANTID,(based on tag),TestResponseTarget_p1_inverse,1829,dikebe,#TRIALTEMPLATE,584134,#PARTBLOCKS,#ALLBLOCKS,Voicing,301,b,NonFinal,#PART,#CORRECT
279,#EXPTID,DispreferenceFirst,dispreferenceFirst,-0.8547008547008547,#TRIAL,#PARTICIPANTID,(based on tag),TestResponseTarget_p1_inverse,1170,bugibe,#TRIALTEMPLATE,585444,#PARTBLOCKS,#ALLBLOCKS,Voicing,302,b,NonFinal,#PART,#CORRECT
280,#EXPTID,DispreferenceFirst,dispreferenceFirst,-0.7501875468867217,#TRIAL,#PARTICIPANTID,(based on tag),TestResponseTarget_p1_inverse,1333,todube,#TRIALTEMPLATE,587024,#PARTBLOCKS,#ALLBLOCKS,Voicing,303,b,NonFinal,#PART,#CORRECT
281,#EXPTID,DispreferenceFirst,dispreferenceFirst,-0.6406149903907752,#TRIAL,#PARTICIPANTID,(based on tag),TestResponseTarget_p1_inverse,1561,potip,#TRIALTEMPLATE,588784,#PARTBLOCKS,#ALLBLOCKS,Devoicing,304,p,Final,#PART,#CORRECT
282,#EXPTID,DispreferenceFirst,dispreferenceFirst,-1.1111111111111112,#TRIAL,#PARTICIPANTID,(based on tag),TestResponseTarget_p1_inverse,900,gutop,#TRIALTEMPLATE,589863,#PARTBLOCKS,#ALLBLOCKS,Devoicing,305,p,Final,#PART,#CORRECT
283,#EXPTID,DispreferenceFirst,dispreferenceFirst,-0.9066183136899365,#TRIAL,#PARTICIPANTID,(based on tag),TestResponseTarget_p1_inverse,1103,todup,#TRIALTEMPLATE,591133,#PARTBLOCKS,#ALLBLOCKS,Devoicing,306,p,Final,#PART,#CORRECT
284,#EXPTID,DispreferenceFirst,dispreferenceFirst,-0.8680555555555556,#TRIAL,#PARTICIPANTID,(based on tag),TestResponseTarget_p1_inverse,1152,tekube,#TRIALTEMPLATE,592493,#PARTBLOCKS,#ALLBLOCKS,Voicing,307,b,NonFinal,#PART,#CORRECT
285,#EXPTID,DispreferenceFirst,dispreferenceFirst,-0.9569377990430622,#TRIAL,#PARTICIPANTID,(based on tag),TestResponseTarget_p1_inverse,1045,dokup,#TRIALTEMPLATE,593762,#PARTBLOCKS,#ALLBLOCKS,Devoicing,308,p,Final,#PART,#CORRECT
286,#EXPTID,DispreferenceFirst,dispreferenceFirst,-0.9541984732824428,#TRIAL,#PARTICIPANTID,(based on tag),TestResponseTarget_p1_inverse,1048,bugip,#TRIALTEMPLATE,594962,#PARTBLOCKS,#ALLBLOCKS,Devoicing,309,p,Final,#PART,#CORRECT
287,#EXPTID,DispreferenceFirst,dispreferenceFirst,-0.7581501137225171,#TRIAL,#PARTICIPANTID,(based on tag),TestResponseTarget_p1_inverse,1319,dokube,#TRIALTEMPLATE,596442,#PARTBLOCKS,#ALLBLOCKS,Voicing,310,b,NonFinal,#PART,#CORRECT
288,#EXPTID,DispreferenceFirst,dispreferenceFirst,-0.8787346221441125,#TRIAL,#PARTICIPANTID,(based on tag),TestResponseTarget_p1_inverse,1138,gutobe,#TRIALTEMPLATE,597732,#PARTBLOCKS,#ALLBLOCKS,Voicing,311,b,NonFinal,#PART,#CORRECT
289,#EXPTID,DispreferenceFirst,dispreferenceFirst,-0.8496176720475785,#TRIAL,#PARTICIPANTID,(based on tag),TestResponseTarget_p1_inverse,1177,dogibe,#TRIALTEMPLATE,599081,#PARTBLOCKS,#ALLBLOCKS,Voicing,312,b,NonFinal,#PART,#CORRECT
290,#EXPTID,DispreferenceFirst,dispreferenceFirst,-0.8984725965858041,#TRIAL,#PARTICIPANTID,(based on tag),TestResponseTarget_p1_inverse,1113,bikube,#TRIALTEMPLATE,600391,#PARTBLOCKS,#ALLBLOCKS,Voicing,313,b,NonFinal,#PART,#CORRECT
291,#EXPTID,DispreferenceFirst,dispreferenceFirst,-0.8904719501335708,#TRIAL,#PARTICIPANTID,(based on tag),TestResponseTarget_p1_inverse,1123,pigebe,#TRIALTEMPLATE,601781,#PARTBLOCKS,#ALLBLOCKS,Voicing,314,b,NonFinal,#PART,#CORRECT
292,#EXPTID,DispreferenceFirst,dispreferenceFirst,-0.9852216748768473,#TRIAL,#PARTICIPANTID,(based on tag),TestResponseTarget_p1_inverse,1015,bogebe,#TRIALTEMPLATE,602971,#PARTBLOCKS,#ALLBLOCKS,Voicing,315,b,NonFinal,#PART,#CORRECT
293,#EXPTID,DispreferenceFirst,dispreferenceFirst,-0.9813542688910697,#TRIAL,#PARTICIPANTID,(based on tag),TestResponseTarget_p1_inverse,1019,todip,#TRIALTEMPLATE,604221,#PARTBLOCKS,#ALLBLOCKS,Devoicing,316,p,Final,#PART,#CORRECT
294,#EXPTID,DispreferenceFirst,dispreferenceFirst,-0.6191950464396285,#TRIAL,#PARTICIPANTID,(based on tag),TestResponseTarget_p1_inverse,1615,gotebe,#TRIALTEMPLATE,605980,#PARTBLOCKS,#ALLBLOCKS,Voicing,317,b,NonFinal,#PART,#CORRECT
295,#EXPTID,DispreferenceFirst,dispreferenceFirst,-0.8857395925597874,#TRIAL,#PARTICIPANTID,(based on tag),TestResponseTarget_p1_inverse,1129,potibe,#TRIALTEMPLATE,607260,#PARTBLOCKS,#ALLBLOCKS,Voicing,318,b,NonFinal,#PART,#CORRECT
296,#EXPTID,DispreferenceFirst,dispreferenceFirst,-0.9216589861751152,#TRIAL,#PARTICIPANTID,(based on tag),TestResponseTarget_p1_inverse,1085,tekup,#TRIALTEMPLATE,608550,#PARTBLOCKS,#ALLBLOCKS,Devoicing,319,p,Final,#PART,#CORRECT
297,#EXPTID,DispreferenceFirst,dispreferenceFirst,-0.39447731755424065,#TRIAL,#PARTICIPANTID,(any response),TestResponseTarget_p1_inverse,2535, ,#TRIALTEMPLATE,610000,#PARTBLOCKS,#ALLBLOCKS,Devoicing,320,,NonFinal,#PART,#CORRECT
298,#EXPTID,DispreferenceFirst,dispreferenceFirst,-1.0638297872340425,#TRIAL,#PARTICIPANTID,(based on tag),TestResponseTarget_p1_inverse,940,dokup,#TRIALTEMPLATE,611119,#PARTBLOCKS,#ALLBLOCKS,Devoicing,321,p,Final,#PART,#CORRECT
299,#EXPTID,DispreferenceFirst,dispreferenceFirst,-0.8375209380234506,#TRIAL,#PARTICIPANTID,(based on tag),TestResponseTarget_p1_inverse,1194,todibe,#TRIALTEMPLATE,612459,#PARTBLOCKS,#ALLBLOCKS,Voicing,322,b,NonFinal,#PART,#CORRECT
300,#EXPTID,DispreferenceFirst,dispreferenceFirst,-0.9871668311944719,#TRIAL,#PARTICIPANTID,(based on tag),TestResponseTarget_p1_inverse,1013,degop,#TRIALTEMPLATE,613649,#PARTBLOCKS,#ALLBLOCKS,Devoicing,323,p,Final,#PART,#CORRECT
301,#EXPTID,DispreferenceFirst,dispreferenceFirst,-0.8438818565400844,#TRIAL,#PARTICIPANTID,(based on tag),TestResponseTarget_p1_inverse,1185,degobe,#TRIALTEMPLATE,614989,#PARTBLOCKS,#ALLBLOCKS,Voicing,324,b,NonFinal,#PART,#CORRECT
302,#EXPTID,DispreferenceFirst,dispreferenceFirst,-0.9442870632672332,#TRIAL,#PARTICIPANTID,(based on tag),TestResponseTarget_p1_inverse,1059,bogebe,#TRIALTEMPLATE,616208,#PARTBLOCKS,#ALLBLOCKS,Voicing,325,b,NonFinal,#PART,#CORRECT
303,#EXPTID,DispreferenceFirst,dispreferenceFirst,-1.050420168067227,#TRIAL,#PARTICIPANTID,(based on tag),TestResponseTarget_p1_inverse,952,pigebe,#TRIALTEMPLATE,617348,#PARTBLOCKS,#ALLBLOCKS,Voicing,326,b,NonFinal,#PART,#CORRECT
304,#EXPTID,DispreferenceFirst,dispreferenceFirst,-1.1123470522803114,#TRIAL,#PARTICIPANTID,(based on tag),TestResponseTarget_p1_inverse,899,todup,#TRIALTEMPLATE,618588,#PARTBLOCKS,#ALLBLOCKS,Devoicing,327,p,Final,#PART,#CORRECT
305,#EXPTID,DispreferenceFirst,dispreferenceFirst,-0.8787346221441125,#TRIAL,#PARTICIPANTID,(based on tag),TestResponseTarget_p1_inverse,1138,tekube,#TRIALTEMPLATE,619888,#PARTBLOCKS,#ALLBLOCKS,Voicing,328,b,NonFinal,#PART,#CORRECT
306,#EXPTID,DispreferenceFirst,dispreferenceFirst,-1.0362694300518134,#TRIAL,#PARTICIPANTID,(based on tag),TestResponseTarget_p1_inverse,965,potip,#TRIALTEMPLATE,621087,#PARTBLOCKS,#ALLBLOCKS,Devoicing,329,p,Final,#PART,#CORRECT
307,#EXPTID,DispreferenceFirst,dispreferenceFirst,-0.7457121551081283,#TRIAL,#PARTICIPANTID,(based on tag),TestResponseTarget_p1_inverse,1341,dokube,#TRIALTEMPLATE,622587,#PARTBLOCKS,#ALLBLOCKS,Voicing,330,b,NonFinal,#PART,#CORRECT
308,#EXPTID,DispreferenceFirst,dispreferenceFirst,-0.7727975270479135,#TRIAL,#PARTICIPANTID,(based on tag),TestResponseTarget_p1_inverse,1294,bikube,#TRIALTEMPLATE,624047,#PARTBLOCKS,#ALLBLOCKS,Voicing,331,b,NonFinal,#PART,#CORRECT
309,#EXPTID,DispreferenceFirst,dispreferenceFirst,-0.8613264427217916,#TRIAL,#PARTICIPANTID,(based on tag),TestResponseTarget_p1_inverse,1161,pigep,#TRIALTEMPLATE,625357,#PARTBLOCKS,#ALLBLOCKS,Devoicing,332,p,Final,#PART,#CORRECT
310,#EXPTID,DispreferenceFirst,dispreferenceFirst,-0.9950248756218906,#TRIAL,#PARTICIPANTID,(based on tag),TestResponseTarget_p1_inverse,1005,bogep,#TRIALTEMPLATE,626567,#PARTBLOCKS,#ALLBLOCKS,Devoicing,333,p,Final,#PART,#CORRECT
311,#EXPTID,DispreferenceFirst,dispreferenceFirst,-0.7524454477050414,#TRIAL,#PARTICIPANTID,(based on tag),TestResponseTarget_p1_inverse,1329,dikebe,#TRIALTEMPLATE,628056,#PARTBLOCKS,#ALLBLOCKS,Voicing,334,b,NonFinal,#PART,#CORRECT
312,#EXPTID,DispreferenceFirst,dispreferenceFirst,-0.8431703204047217,#TRIAL,#PARTICIPANTID,(based on tag),TestResponseTarget_p1_inverse,1186,tekup,#TRIALTEMPLATE,629396,#PARTBLOCKS,#ALLBLOCKS,Devoicing,335,p,Final,#PART,#CORRECT
313,#EXPTID,DispreferenceFirst,dispreferenceFirst,-0.7593014426727411,#TRIAL,#PARTICIPANTID,(based on tag),TestResponseTarget_p1_inverse,1317,bugibe,#TRIALTEMPLATE,630906,#PARTBLOCKS,#ALLBLOCKS,Voicing,336,b,NonFinal,#PART,#CORRECT
314,#EXPTID,DispreferenceFirst,dispreferenceFirst,-0.9319664492078286,#TRIAL,#PARTICIPANTID,(based on tag),TestResponseTarget_p1_inverse,1073,todube,#TRIALTEMPLATE,632165,#PARTBLOCKS,#ALLBLOCKS,Voicing,337,b,NonFinal,#PART,#CORRECT
315,#EXPTID,DispreferenceFirst,dispreferenceFirst,-0.9140767824497258,#TRIAL,#PARTICIPANTID,(based on tag),TestResponseTarget_p1_inverse,1094,gutop,#TRIALTEMPLATE,633575,#PARTBLOCKS,#ALLBLOCKS,Devoicing,338,p,Final,#PART,#CORRECT
316,#EXPTID,DispreferenceFirst,dispreferenceFirst,-1.1037527593818985,#TRIAL,#PARTICIPANTID,(based on tag),TestResponseTarget_p1_inverse,906,bidop,#TRIALTEMPLATE,634635,#PARTBLOCKS,#ALLBLOCKS,Devoicing,339,p,Final,#PART,#CORRECT
317,#EXPTID,DispreferenceFirst,dispreferenceFirst,-1.0582010582010581,#TRIAL,#PARTICIPANTID,(based on tag),TestResponseTarget_p1_inverse,945,dogip,#TRIALTEMPLATE,635755,#PARTBLOCKS,#ALLBLOCKS,Devoicing,340,p,Final,#PART,#CORRECT
318,#EXPTID,DispreferenceFirst,dispreferenceFirst,-0.8561643835616438,#TRIAL,#PARTICIPANTID,(based on tag),TestResponseTarget_p1_inverse,1168,gutobe,#TRIALTEMPLATE,637115,#PARTBLOCKS,#ALLBLOCKS,Voicing,341,b,NonFinal,#PART,#CORRECT
319,#EXPTID,DispreferenceFirst,dispreferenceFirst,-0.7027406886858749,#TRIAL,#PARTICIPANTID,(based on tag),TestResponseTarget_p1_inverse,1423,pidobe,#TRIALTEMPLATE,638694,#PARTBLOCKS,#ALLBLOCKS,Voicing,342,b,NonFinal,#PART,#CORRECT
320,#EXPTID,DispreferenceFirst,dispreferenceFirst,-0.9689922480620154,#TRIAL,#PARTICIPANTID,(based on tag),TestResponseTarget_p1_inverse,1032,bugip,#TRIALTEMPLATE,639874,#PARTBLOCKS,#ALLBLOCKS,Devoicing,343,p,Final,#PART,#CORRECT
321,#EXPTID,DispreferenceFirst,dispreferenceFirst,-1.027749229188078,#TRIAL,#PARTICIPANTID,(based on tag),TestResponseTarget_p1_inverse,973,todip,#TRIALTEMPLATE,641004,#PARTBLOCKS,#ALLBLOCKS,Devoicing,344,p,Final,#PART,#CORRECT
322,#EXPTID,DispreferenceFirst,dispreferenceFirst,-0.9285051067780873,#TRIAL,#PARTICIPANTID,(based on tag),TestResponseTarget_p1_inverse,1077,potibe,#TRIALTEMPLATE,642274,#PARTBLOCKS,#ALLBLOCKS,Voicing,345,b,NonFinal,#PART,#CORRECT
323,#EXPTID,DispreferenceFirst,dispreferenceFirst,-0.9442870632672332,#TRIAL,#PARTICIPANTID,(based on tag),TestResponseTarget_p1_inverse,1059,bidobe,#TRIALTEMPLATE,643593,#PARTBLOCKS,#ALLBLOCKS,Voicing,346,b,NonFinal,#PART,#CORRECT
324,#EXPTID,DispreferenceFirst,dispreferenceFirst,-0.9389671361502347,#TRIAL,#PARTICIPANTID,(based on tag),TestResponseTarget_p1_inverse,1065,gotebe,#TRIALTEMPLATE,644933,#PARTBLOCKS,#ALLBLOCKS,Voicing,347,b,NonFinal,#PART,#CORRECT
325,#EXPTID,DispreferenceFirst,dispreferenceFirst,-0.7993605115907274,#TRIAL,#PARTICIPANTID,(based on tag),TestResponseTarget_p1_inverse,1251,dogibe,#TRIALTEMPLATE,646423,#PARTBLOCKS,#ALLBLOCKS,Voicing,348,b,NonFinal,#PART,#CORRECT
326,#EXPTID,DispreferenceFirst,dispreferenceFirst,-0.8818342151675485,#TRIAL,#PARTICIPANTID,(based on tag),TestResponseTarget_p1_inverse,1134,gotep,#TRIALTEMPLATE,647753,#PARTBLOCKS,#ALLBLOCKS,Devoicing,349,p,Final,#PART,#CORRECT
327,#EXPTID,DispreferenceFirst,dispreferenceFirst,-0.922509225092251,#TRIAL,#PARTICIPANTID,(based on tag),TestResponseTarget_p1_inverse,1084,pidop,#TRIALTEMPLATE,648982,#PARTBLOCKS,#ALLBLOCKS,Devoicing,350,p,Final,#PART,#CORRECT
328,#EXPTID,DispreferenceFirst,dispreferenceFirst,-0.9587727708533078,#TRIAL,#PARTICIPANTID,(based on tag),TestResponseTarget_p1_inverse,1043,dikep,#TRIALTEMPLATE,650192,#PARTBLOCKS,#ALLBLOCKS,Devoicing,351,p,Final,#PART,#CORRECT
329,#EXPTID,DispreferenceFirst,dispreferenceFirst,-1.0080645161290323,#TRIAL,#PARTICIPANTID,(based on tag),TestResponseTarget_p1_inverse,992,bikup,#TRIALTEMPLATE,651342,#PARTBLOCKS,#ALLBLOCKS,Devoicing,352,p,Final,#PART,#CORRECT
330,#EXPTID,DispreferenceFirst,dispreferenceFirst,-0.20571898786257972,#TRIAL,#PARTICIPANTID,(any response),TestResponseTarget_p1_inverse,4861, ,#TRIALTEMPLATE,655211,#PARTBLOCKS,#ALLBLOCKS,Devoicing,353,,NonFinal,#PART,#CORRECT
331,#EXPTID,DispreferenceFirst,dispreferenceFirst_inverse,-0.5249343832020997,#TRIAL,#PARTICIPANTID,(based on tag),TestResponseTarget_p1_inverse,1905,bumblebee,#TRIALTEMPLATE,80509,#PARTBLOCKS,#ALLBLOCKS,Voicing,354,b,NonFinal,#PART,#CORRECT
332,#EXPTID,DispreferenceFirst,dispreferenceFirst_inverse,-1.0615711252653928,#TRIAL,#PARTICIPANTID,(based on tag),TestResponseTarget_p1_inverse,942,canopy,#TRIALTEMPLATE,82109,#PARTBLOCKS,#ALLBLOCKS,Devoicing,355,p,NonFinal,#PART,#CORRECT
333,#EXPTID,DispreferenceFirst,dispreferenceFirst_inverse,-1.2224938875305624,#TRIAL,#PARTICIPANTID,(based on tag),TestResponseTarget_p1_inverse,818,cob,#TRIALTEMPLATE,83568,#PARTBLOCKS,#ALLBLOCKS,Voicing,356,b,Final,#PART,#CORRECT
334,#EXPTID,DispreferenceFirst,dispreferenceFirst_inverse,-0.9442870632672332,#TRIAL,#PARTICIPANTID,(based on tag),TestResponseTarget_p1_inverse,1059,copy,#TRIALTEMPLATE,85268,#PARTBLOCKS,#ALLBLOCKS,Devoicing,357,p,NonFinal,#PART,#CORRECT
335,#EXPTID,DispreferenceFirst,dispreferenceFirst_inverse,-1.1185682326621924,#TRIAL,#PARTICIPANTID,(based on tag),TestResponseTarget_p1_inverse,894,crab,#TRIALTEMPLATE,86808,#PARTBLOCKS,#ALLBLOCKS,Voicing,358,b,Final,#PART,#CORRECT
336,#EXPTID,DispreferenceFirst,dispreferenceFirst_inverse,-1.0526315789473684,#TRIAL,#PARTICIPANTID,(based on tag),TestResponseTarget_p1_inverse,950,crimp,#TRIALTEMPLATE,88358,#PARTBLOCKS,#ALLBLOCKS,Devoicing,359,p,Final,#PART,#CORRECT
337,#EXPTID,DispreferenceFirst,dispreferenceFirst_inverse,-1.0582010582010581,#TRIAL,#PARTICIPANTID,(based on tag),TestResponseTarget_p1_inverse,945,flop,#TRIALTEMPLATE,89907,#PARTBLOCKS,#ALLBLOCKS,Devoicing,360,p,Final,#PART,#CORRECT
338,#EXPTID,DispreferenceFirst,dispreferenceFirst_inverse,-0.9950248756218906,#TRIAL,#PARTICIPANTID,(based on tag),TestResponseTarget_p1_inverse,1005,grab,#TRIALTEMPLATE,91537,#PARTBLOCKS,#ALLBLOCKS,Voicing,361,b,Final,#PART,#CORRECT
339,#EXPTID,DispreferenceFirst,dispreferenceFirst_inverse,-0.8591065292096219,#TRIAL,#PARTICIPANTID,(based on tag),TestResponseTarget_p1_inverse,1164,grub,#TRIALTEMPLATE,93316,#PARTBLOCKS,#ALLBLOCKS,Voicing,362,b,Final,#PART,#CORRECT
340,#EXPTID,DispreferenceFirst,dispreferenceFirst_inverse,-1.2919896640826873,#TRIAL,#PARTICIPANTID,(based on tag),TestResponseTarget_p1_inverse,774,hippie,#TRIALTEMPLATE,94746,#PARTBLOCKS,#ALLBLOCKS,Devoicing,363,p,NonFinal,#PART,#CORRECT
341,#EXPTID,DispreferenceFirst,dispreferenceFirst_inverse,-0.7117437722419929,#TRIAL,#PARTICIPANTID,(based on tag),TestResponseTarget_p1_inverse,1405,lobe,#TRIALTEMPLATE,96756,#PARTBLOCKS,#ALLBLOCKS,Voicing,364,b,NonFinal,#PART,#CORRECT
342,#EXPTID,DispreferenceFirst,dispreferenceFirst_inverse,-1.0351966873706004,#TRIAL,#PARTICIPANTID,(based on tag),TestResponseTarget_p1_inverse,966,maybe,#TRIALTEMPLATE,98346,#PARTBLOCKS,#ALLBLOCKS,Voicing,365,b,NonFinal,#PART,#CORRECT
343,#EXPTID,DispreferenceFirst,dispreferenceFirst_inverse,-0.7874015748031497,#TRIAL,#PARTICIPANTID,(based on tag),TestResponseTarget_p1_inverse,1270,placebo,#TRIALTEMPLATE,100235,#PARTBLOCKS,#ALLBLOCKS,Voicing,366,b,NonFinal,#PART,#CORRECT
344,#EXPTID,DispreferenceFirst,dispreferenceFirst_inverse,-0.46490004649000466,#TRIAL,#PARTICIPANTID,(based on tag),TestResponseTarget_p1_inverse,2151,pope,#TRIALTEMPLATE,102985,#PARTBLOCKS,#ALLBLOCKS,Devoicing,367,p,NonFinal,#PART,#CORRECT
345,#EXPTID,DispreferenceFirst,dispreferenceFirst_inverse,-0.9033423667570009,#TRIAL,#PARTICIPANTID,(based on tag),TestResponseTarget_p1_inverse,1107,ripe,#TRIALTEMPLATE,104765,#PARTBLOCKS,#ALLBLOCKS,Devoicing,368,p,NonFinal,#PART,#CORRECT
346,#EXPTID,DispreferenceFirst,dispreferenceFirst_inverse,-0.9115770282588879,#TRIAL,#PARTICIPANTID,(based on tag),TestResponseTarget_p1_inverse,1097,scuba,#TRIALTEMPLATE,106524,#PARTBLOCKS,#ALLBLOCKS,Voicing,369,b,NonFinal,#PART,#CORRECT
347,#EXPTID,DispreferenceFirst,dispreferenceFirst_inverse,-0.746268656716418,#TRIAL,#PARTICIPANTID,(based on tag),TestResponseTarget_p1_inverse,1340,shape,#TRIALTEMPLATE,108484,#PARTBLOCKS,#ALLBLOCKS,Devoicing,370,p,NonFinal,#PART,#CORRECT
348,#EXPTID,DispreferenceFirst,dispreferenceFirst_inverse,-1.0493179433368311,#TRIAL,#PARTICIPANTID,(based on tag),TestResponseTarget_p1_inverse,953,toupee,#TRIALTEMPLATE,110063,#PARTBLOCKS,#ALLBLOCKS,Devoicing,371,p,NonFinal,#PART,#CORRECT
349,#EXPTID,DispreferenceFirst,dispreferenceFirst_inverse,-1.2578616352201257,#TRIAL,#PARTICIPANTID,(based on tag),TestResponseTarget_p1_inverse,795,typo,#TRIALTEMPLATE,111473,#PARTBLOCKS,#ALLBLOCKS,Devoicing,372,p,NonFinal,#PART,#CORRECT
350,#EXPTID,DispreferenceFirst,dispreferenceFirst_inverse,-0.9596928982725528,#TRIAL,#PARTICIPANTID,(based on tag),TestResponseTarget_p1_inverse,1042,wallaby,#TRIALTEMPLATE,113153,#PARTBLOCKS,#ALLBLOCKS,Voicing,373,b,NonFinal,#PART,#CORRECT
351,#EXPTID,DispreferenceFirst,dispreferenceFirst_inverse,-0.5192107995846313,#TRIAL,#PARTICIPANTID,(based on tag),TestResponseTarget_p1_inverse,1926,degob,#TRIALTEMPLATE,119912,#PARTBLOCKS,#ALLBLOCKS,Voicing,374,b,Final,#PART,#CORRECT
352,#EXPTID,DispreferenceFirst,dispreferenceFirst_inverse,-0.6693440428380187,#TRIAL,#PARTICIPANTID,(based on tag),TestResponseTarget_p1_inverse,1494,potipe,#TRIALTEMPLATE,121571,#PARTBLOCKS,#ALLBLOCKS,Devoicing,375,p,NonFinal,#PART,#CORRECT
353,#EXPTID,DispreferenceFirst,dispreferenceFirst_inverse,-0.5988023952095808,#TRIAL,#PARTICIPANTID,(based on tag),TestResponseTarget_p1_inverse,1670,todupe,#TRIALTEMPLATE,123391,#PARTBLOCKS,#ALLBLOCKS,Devoicing,376,p,NonFinal,#PART,#CORRECT
354,#EXPTID,DispreferenceFirst,dispreferenceFirst_inverse,-0.6031363088057901,#TRIAL,#PARTICIPANTID,(based on tag),TestResponseTarget_p1_inverse,1658,gotepe,#TRIALTEMPLATE,125211,#PARTBLOCKS,#ALLBLOCKS,Devoicing,377,p,NonFinal,#PART,#CORRECT
355,#EXPTID,DispreferenceFirst,dispreferenceFirst_inverse,-0.5027652086475616,#TRIAL,#PARTICIPANTID,(based on tag),TestResponseTarget_p1_inverse,1989,bikupe,#TRIALTEMPLATE,127360,#PARTBLOCKS,#ALLBLOCKS,Devoicing,378,p,NonFinal,#PART,#CORRECT
356,#EXPTID,DispreferenceFirst,dispreferenceFirst_inverse,-0.7558578987150416,#TRIAL,#PARTICIPANTID,(based on tag),TestResponseTarget_p1_inverse,1323,pigepe,#TRIALTEMPLATE,128900,#PARTBLOCKS,#ALLBLOCKS,Devoicing,379,p,NonFinal,#PART,#CORRECT
357,#EXPTID,DispreferenceFirst,dispreferenceFirst_inverse,-0.4859086491739553,#TRIAL,#PARTICIPANTID,(based on tag),TestResponseTarget_p1_inverse,2058,bugib,#TRIALTEMPLATE,131130,#PARTBLOCKS,#ALLBLOCKS,Voicing,380,b,Final,#PART,#CORRECT
358,#EXPTID,DispreferenceFirst,dispreferenceFirst_inverse,-0.6493506493506493,#TRIAL,#PARTICIPANTID,(based on tag),TestResponseTarget_p1_inverse,1540,bogepe,#TRIALTEMPLATE,132839,#PARTBLOCKS,#ALLBLOCKS,Devoicing,381,p,NonFinal,#PART,#CORRECT
359,#EXPTID,DispreferenceFirst,dispreferenceFirst_inverse,-0.7082152974504249,#TRIAL,#PARTICIPANTID,(based on tag),TestResponseTarget_p1_inverse,1412,tekupe,#TRIALTEMPLATE,134419,#PARTBLOCKS,#ALLBLOCKS,Devoicing,382,p,NonFinal,#PART,#CORRECT
360,#EXPTID,DispreferenceFirst,dispreferenceFirst_inverse,-0.8077544426494345,#TRIAL,#PARTICIPANTID,(based on tag),TestResponseTarget_p1_inverse,1238,tekub,#TRIALTEMPLATE,135869,#PARTBLOCKS,#ALLBLOCKS,Voicing,383,b,Final,#PART,#CORRECT
361,#EXPTID,DispreferenceFirst,dispreferenceFirst_inverse,-0.8257638315441783,#TRIAL,#PARTICIPANTID,(based on tag),TestResponseTarget_p1_inverse,1211,bikub,#TRIALTEMPLATE,137278,#PARTBLOCKS,#ALLBLOCKS,Voicing,384,b,Final,#PART,#CORRECT
362,#EXPTID,DispreferenceFirst,dispreferenceFirst_inverse,-0.9487666034155597,#TRIAL,#PARTICIPANTID,(based on tag),TestResponseTarget_p1_inverse,1054,bidob,#TRIALTEMPLATE,138478,#PARTBLOCKS,#ALLBLOCKS,Voicing,385,b,Final,#PART,#CORRECT
363,#EXPTID,DispreferenceFirst,dispreferenceFirst_inverse,-0.7581501137225171,#TRIAL,#PARTICIPANTID,(based on tag),TestResponseTarget_p1_inverse,1319,degope,#TRIALTEMPLATE,139948,#PARTBLOCKS,#ALLBLOCKS,Devoicing,386,p,NonFinal,#PART,#CORRECT
364,#EXPTID,DispreferenceFirst,dispreferenceFirst_inverse,-0.8149959250203749,#TRIAL,#PARTICIPANTID,(based on tag),TestResponseTarget_p1_inverse,1227,gutope,#TRIALTEMPLATE,141328,#PARTBLOCKS,#ALLBLOCKS,Devoicing,387,p,NonFinal,#PART,#CORRECT
365,#EXPTID,DispreferenceFirst,dispreferenceFirst_inverse,-0.7911392405063291,#TRIAL,#PARTICIPANTID,(based on tag),TestResponseTarget_p1_inverse,1264,dogipe,#TRIALTEMPLATE,142777,#PARTBLOCKS,#ALLBLOCKS,Devoicing,388,p,NonFinal,#PART,#CORRECT
366,#EXPTID,DispreferenceFirst,dispreferenceFirst_inverse,-0.8496176720475785,#TRIAL,#PARTICIPANTID,(based on tag),TestResponseTarget_p1_inverse,1177,goteb,#TRIALTEMPLATE,144117,#PARTBLOCKS,#ALLBLOCKS,Voicing,389,b,Final,#PART,#CORRECT
367,#EXPTID,DispreferenceFirst,dispreferenceFirst_inverse,-0.7012622720897616,#TRIAL,#PARTICIPANTID,(based on tag),TestResponseTarget_p1_inverse,1426,dokupe,#TRIALTEMPLATE,145697,#PARTBLOCKS,#ALLBLOCKS,Devoicing,390,p,NonFinal,#PART,#CORRECT
368,#EXPTID,DispreferenceFirst,dispreferenceFirst_inverse,-0.8525149190110827,#TRIAL,#PARTICIPANTID,(based on tag),TestResponseTarget_p1_inverse,1173,pidob,#TRIALTEMPLATE,147047,#PARTBLOCKS,#ALLBLOCKS,Voicing,391,b,Final,#PART,#CORRECT
369,#EXPTID,DispreferenceFirst,dispreferenceFirst_inverse,-0.9775171065493646,#TRIAL,#PARTICIPANTID,(based on tag),TestResponseTarget_p1_inverse,1023,gutob,#TRIALTEMPLATE,148237,#PARTBLOCKS,#ALLBLOCKS,Voicing,392,b,Final,#PART,#CORRECT
370,#EXPTID,DispreferenceFirst,dispreferenceFirst_inverse,-0.5491488193300385,#TRIAL,#PARTICIPANTID,(based on tag),TestResponseTarget_p1_inverse,1821,bugipe,#TRIALTEMPLATE,150206,#PARTBLOCKS,#ALLBLOCKS,Devoicing,393,p,NonFinal,#PART,#CORRECT
371,#EXPTID,DispreferenceFirst,dispreferenceFirst_inverse,-0.5197505197505198,#TRIAL,#PARTICIPANTID,(based on tag),TestResponseTarget_p1_inverse,1924,dikepe,#TRIALTEMPLATE,152296,#PARTBLOCKS,#ALLBLOCKS,Devoicing,394,p,NonFinal,#PART,#CORRECT
372,#EXPTID,DispreferenceFirst,dispreferenceFirst_inverse,-0.49776007964161273,#TRIAL,#PARTICIPANTID,(based on tag),TestResponseTarget_p1_inverse,2009,bidope,#TRIALTEMPLATE,154475,#PARTBLOCKS,#ALLBLOCKS,Devoicing,395,p,NonFinal,#PART,#CORRECT
373,#EXPTID,DispreferenceFirst,dispreferenceFirst_inverse,-0.6215040397762586,#TRIAL,#PARTICIPANTID,(based on tag),TestResponseTarget_p1_inverse,1609,todipe,#TRIALTEMPLATE,156235,#PARTBLOCKS,#ALLBLOCKS,Devoicing,396,p,NonFinal,#PART,#CORRECT
374,#EXPTID,DispreferenceFirst,dispreferenceFirst_inverse,-0.8756567425569177,#TRIAL,#PARTICIPANTID,(based on tag),TestResponseTarget_p1_inverse,1142,pigeb,#TRIALTEMPLATE,157535,#PARTBLOCKS,#ALLBLOCKS,Voicing,397,b,Final,#PART,#CORRECT
375,#EXPTID,DispreferenceFirst,dispreferenceFirst_inverse,-0.7518796992481203,#TRIAL,#PARTICIPANTID,(based on tag),TestResponseTarget_p1_inverse,1330,dogib,#TRIALTEMPLATE,159064,#PARTBLOCKS,#ALLBLOCKS,Voicing,398,b,Final,#PART,#CORRECT
376,#EXPTID,DispreferenceFirst,dispreferenceFirst_inverse,-0.7267441860465116,#TRIAL,#PARTICIPANTID,(based on tag),TestResponseTarget_p1_inverse,1376,dokub,#TRIALTEMPLATE,160604,#PARTBLOCKS,#ALLBLOCKS,Voicing,399,b,Final,#PART,#CORRECT
377,#EXPTID,DispreferenceFirst,dispreferenceFirst_inverse,-0.384172109104879,#TRIAL,#PARTICIPANTID,(based on tag),TestResponseTarget_p1_inverse,2603,todub,#TRIALTEMPLATE,163414,#PARTBLOCKS,#ALLBLOCKS,Voicing,400,b,Final,#PART,#CORRECT
378,#EXPTID,DispreferenceFirst,dispreferenceFirst_inverse,-0.5467468562055768,#TRIAL,#PARTICIPANTID,(based on tag),TestResponseTarget_p1_inverse,1829,todib,#TRIALTEMPLATE,165453,#PARTBLOCKS,#ALLBLOCKS,Voicing,401,b,Final,#PART,#CORRECT
379,#EXPTID,DispreferenceFirst,dispreferenceFirst_inverse,-0.778816199376947,#TRIAL,#PARTICIPANTID,(based on tag),TestResponseTarget_p1_inverse,1284,dikeb,#TRIALTEMPLATE,166903,#PARTBLOCKS,#ALLBLOCKS,Voicing,402,b,Final,#PART,#CORRECT
380,#EXPTID,DispreferenceFirst,dispreferenceFirst_inverse,-0.8278145695364238,#TRIAL,#PARTICIPANTID,(based on tag),TestResponseTarget_p1_inverse,1208,potib,#TRIALTEMPLATE,168273,#PARTBLOCKS,#ALLBLOCKS,Voicing,403,b,Final,#PART,#CORRECT
381,#EXPTID,DispreferenceFirst,dispreferenceFirst_inverse,-0.5012531328320802,#TRIAL,#PARTICIPANTID,(based on tag),TestResponseTarget_p1_inverse,1995,pidope,#TRIALTEMPLATE,170432,#PARTBLOCKS,#ALLBLOCKS,Devoicing,404,p,NonFinal,#PART,#CORRECT
382,#EXPTID,DispreferenceFirst,dispreferenceFirst_inverse,-0.8936550491510277,#TRIAL,#PARTICIPANTID,(based on tag),TestResponseTarget_p1_inverse,1119,bogeb,#TRIALTEMPLATE,171712,#PARTBLOCKS,#ALLBLOCKS,Voicing,405,b,Final,#PART,#CORRECT
383,#EXPTID,DispreferenceFirst,dispreferenceFirst_inverse,-0.08675284115554785,#TRIAL,#PARTICIPANTID,(any response),TestResponseTarget_p1_inverse,11527, ,#TRIALTEMPLATE,182120,#PARTBLOCKS,#ALLBLOCKS,Devoicing,406,,NonFinal,#PART,#CORRECT
384,#EXPTID,DispreferenceFirst,dispreferenceFirst_inverse,-0.5824111822947,#TRIAL,#PARTICIPANTID,(based on tag),TestResponseTarget_p1_inverse,1717,todupe,#TRIALTEMPLATE,184110,#PARTBLOCKS,#ALLBLOCKS,Devoicing,407,p,NonFinal,#PART,#CORRECT
385,#EXPTID,DispreferenceFirst,dispreferenceFirst_inverse,-0.6958942240779401,#TRIAL,#PARTICIPANTID,(based on tag),TestResponseTarget_p1_inverse,1437,dikepe,#TRIALTEMPLATE,185709,#PARTBLOCKS,#ALLBLOCKS,Devoicing,408,p,NonFinal,#PART,#CORRECT
386,#EXPTID,DispreferenceFirst,dispreferenceFirst_inverse,-1.001001001001001,#TRIAL,#PARTICIPANTID,(based on tag),TestResponseTarget_p1_inverse,999,todib,#TRIALTEMPLATE,186859,#PARTBLOCKS,#ALLBLOCKS,Voicing,409,b,Final,#PART,#CORRECT
387,#EXPTID,DispreferenceFirst,dispreferenceFirst_inverse,-0.6373486297004461,#TRIAL,#PARTICIPANTID,(based on tag),TestResponseTarget_p1_inverse,1569,degope,#TRIALTEMPLATE,188579,#PARTBLOCKS,#ALLBLOCKS,Devoicing,410,p,NonFinal,#PART,#CORRECT
388,#EXPTID,DispreferenceFirst,dispreferenceFirst_inverse,-1.0131712259371835,#TRIAL,#PARTICIPANTID,(based on tag),TestResponseTarget_p1_inverse,987,gutob,#TRIALTEMPLATE,189719,#PARTBLOCKS,#ALLBLOCKS,Voicing,411,b,Final,#PART,#CORRECT
389,#EXPTID,DispreferenceFirst,dispreferenceFirst_inverse,-0.5141388174807198,#TRIAL,#PARTICIPANTID,(based on tag),TestResponseTarget_p1_inverse,1945,dogib,#TRIALTEMPLATE,191818,#PARTBLOCKS,#ALLBLOCKS,Voicing,412,b,Final,#PART,#CORRECT
390,#EXPTID,DispreferenceFirst,dispreferenceFirst_inverse,-0.7002801120448179,#TRIAL,#PARTICIPANTID,(based on tag),TestResponseTarget_p1_inverse,1428,goteb,#TRIALTEMPLATE,193408,#PARTBLOCKS,#ALLBLOCKS,Voicing,413,b,Final,#PART,#CORRECT
391,#EXPTID,DispreferenceFirst,dispreferenceFirst_inverse,-0.9328358208955224,#TRIAL,#PARTICIPANTID,(based on tag),TestResponseTarget_p1_inverse,1072,degob,#TRIALTEMPLATE,194668,#PARTBLOCKS,#ALLBLOCKS,Voicing,414,b,Final,#PART,#CORRECT
392,#EXPTID,DispreferenceFirst,dispreferenceFirst_inverse,-0.7342143906020558,#TRIAL,#PARTICIPANTID,(based on tag),TestResponseTarget_p1_inverse,1362,pidope,#TRIALTEMPLATE,196177,#PARTBLOCKS,#ALLBLOCKS,Devoicing,415,p,NonFinal,#PART,#CORRECT
393,#EXPTID,DispreferenceFirst,dispreferenceFirst_inverse,-0.6788866259334692,#TRIAL,#PARTICIPANTID,(based on tag),TestResponseTarget_p1_inverse,1473,bikupe,#TRIALTEMPLATE,197817,#PARTBLOCKS,#ALLBLOCKS,Devoicing,416,p,NonFinal,#PART,#CORRECT
394,#EXPTID,DispreferenceFirst,dispreferenceFirst_inverse,-0.6944444444444444,#TRIAL,#PARTICIPANTID,(based on tag),TestResponseTarget_p1_inverse,1440,potib,#TRIALTEMPLATE,199427,#PARTBLOCKS,#ALLBLOCKS,Voicing,417,b,Final,#PART,#CORRECT
395,#EXPTID,DispreferenceFirst,dispreferenceFirst_inverse,-0.8826125330979699,#TRIAL,#PARTICIPANTID,(based on tag),TestResponseTarget_p1_inverse,1133,bogeb,#TRIALTEMPLATE,200727,#PARTBLOCKS,#ALLBLOCKS,Voicing,418,b,Final,#PART,#CORRECT
396,#EXPTID,DispreferenceFirst,dispreferenceFirst_inverse,-0.949667616334283,#TRIAL,#PARTICIPANTID,(based on tag),TestResponseTarget_p1_inverse,1053,dokub,#TRIALTEMPLATE,201947,#PARTBLOCKS,#ALLBLOCKS,Voicing,419,b,Final,#PART,#CORRECT
397,#EXPTID,DispreferenceFirst,dispreferenceFirst_inverse,-0.7407407407407407,#TRIAL,#PARTICIPANTID,(based on tag),TestResponseTarget_p1_inverse,1350,bogepe,#TRIALTEMPLATE,203466,#PARTBLOCKS,#ALLBLOCKS,Devoicing,420,p,NonFinal,#PART,#CORRECT
398,#EXPTID,DispreferenceFirst,dispreferenceFirst_inverse,-0.7733952049497294,#TRIAL,#PARTICIPANTID,(based on tag),TestResponseTarget_p1_inverse,1293,bugib,#TRIALTEMPLATE,204956,#PARTBLOCKS,#ALLBLOCKS,Voicing,421,b,Final,#PART,#CORRECT
399,#EXPTID,DispreferenceFirst,dispreferenceFirst_inverse,-0.6218905472636815,#TRIAL,#PARTICIPANTID,(based on tag),TestResponseTarget_p1_inverse,1608,bugipe,#TRIALTEMPLATE,206716,#PARTBLOCKS,#ALLBLOCKS,Devoicing,422,p,NonFinal,#PART,#CORRECT
400,#EXPTID,DispreferenceFirst,dispreferenceFirst_inverse,-0.9578544061302682,#TRIAL,#PARTICIPANTID,(based on tag),TestResponseTarget_p1_inverse,1044,todub,#TRIALTEMPLATE,207965,#PARTBLOCKS,#ALLBLOCKS,Voicing,423,b,Final,#PART,#CORRECT
401,#EXPTID,DispreferenceFirst,dispreferenceFirst_inverse,-0.6729475100942126,#TRIAL,#PARTICIPANTID,(based on tag),TestResponseTarget_p1_inverse,1486,bikub,#TRIALTEMPLATE,209615,#PARTBLOCKS,#ALLBLOCKS,Voicing,424,b,Final,#PART,#CORRECT
402,#EXPTID,DispreferenceFirst,dispreferenceFirst_inverse,-0.7199424046076314,#TRIAL,#PARTICIPANTID,(based on tag),TestResponseTarget_p1_inverse,1389,todipe,#TRIALTEMPLATE,211165,#PARTBLOCKS,#ALLBLOCKS,Devoicing,425,p,NonFinal,#PART,#CORRECT
403,#EXPTID,DispreferenceFirst,dispreferenceFirst_inverse,-0.5534034311012729,#TRIAL,#PARTICIPANTID,(based on tag),TestResponseTarget_p1_inverse,1807,gutope,#TRIALTEMPLATE,213124,#PARTBLOCKS,#ALLBLOCKS,Devoicing,426,p,NonFinal,#PART,#CORRECT
404,#EXPTID,DispreferenceFirst,dispreferenceFirst_inverse,-0.8361204013377926,#TRIAL,#PARTICIPANTID,(based on tag),TestResponseTarget_p1_inverse,1196,pigepe,#TRIALTEMPLATE,214514,#PARTBLOCKS,#ALLBLOCKS,Devoicing,427,p,NonFinal,#PART,#CORRECT
405,#EXPTID,DispreferenceFirst,dispreferenceFirst_inverse,-1.0615711252653928,#TRIAL,#PARTICIPANTID,(based on tag),TestResponseTarget_p1_inverse,942,bidob,#TRIALTEMPLATE,215654,#PARTBLOCKS,#ALLBLOCKS,Voicing,428,b,Final,#PART,#CORRECT
406,#EXPTID,DispreferenceFirst,dispreferenceFirst_inverse,-0.9354536950420954,#TRIAL,#PARTICIPANTID,(based on tag),TestResponseTarget_p1_inverse,1069,pigeb,#TRIALTEMPLATE,216904,#PARTBLOCKS,#ALLBLOCKS,Voicing,429,b,Final,#PART,#CORRECT
407,#EXPTID,DispreferenceFirst,dispreferenceFirst_inverse,-0.6540222367560498,#TRIAL,#PARTICIPANTID,(based on tag),TestResponseTarget_p1_inverse,1529,tekub,#TRIALTEMPLATE,218623,#PARTBLOCKS,#ALLBLOCKS,Voicing,430,b,Final,#PART,#CORRECT
408,#EXPTID,DispreferenceFirst,dispreferenceFirst_inverse,-0.6112469437652812,#TRIAL,#PARTICIPANTID,(based on tag),TestResponseTarget_p1_inverse,1636,dokupe,#TRIALTEMPLATE,220403,#PARTBLOCKS,#ALLBLOCKS,Devoicing,431,p,NonFinal,#PART,#CORRECT
409,#EXPTID,DispreferenceFirst,dispreferenceFirst_inverse,-0.7739938080495357,#TRIAL,#PARTICIPANTID,(based on tag),TestResponseTarget_p1_inverse,1292,bidope,#TRIALTEMPLATE,221843,#PARTBLOCKS,#ALLBLOCKS,Devoicing,432,p,NonFinal,#PART,#CORRECT
410,#EXPTID,DispreferenceFirst,dispreferenceFirst_inverse,-0.7246376811594203,#TRIAL,#PARTICIPANTID,(based on tag),TestResponseTarget_p1_inverse,1380,dikeb,#TRIALTEMPLATE,223373,#PARTBLOCKS,#ALLBLOCKS,Voicing,433,b,Final,#PART,#CORRECT
411,#EXPTID,DispreferenceFirst,dispreferenceFirst_inverse,-0.7751937984496124,#TRIAL,#PARTICIPANTID,(based on tag),TestResponseTarget_p1_inverse,1290,dogipe,#TRIALTEMPLATE,224862,#PARTBLOCKS,#ALLBLOCKS,Devoicing,434,p,NonFinal,#PART,#CORRECT
412,#EXPTID,DispreferenceFirst,dispreferenceFirst_inverse,-0.9746588693957114,#TRIAL,#PARTICIPANTID,(based on tag),TestResponseTarget_p1_inverse,1026,pidob,#TRIALTEMPLATE,226052,#PARTBLOCKS,#ALLBLOCKS,Voicing,435,b,Final,#PART,#CORRECT
413,#EXPTID,DispreferenceFirst,dispreferenceFirst_inverse,-0.7092198581560284,#TRIAL,#PARTICIPANTID,(based on tag),TestResponseTarget_p1_inverse,1410,tekupe,#TRIALTEMPLATE,227622,#PARTBLOCKS,#ALLBLOCKS,Devoicing,436,p,NonFinal,#PART,#CORRECT
414,#EXPTID,DispreferenceFirst,dispreferenceFirst_inverse,-0.6027727546714888,#TRIAL,#PARTICIPANTID,(based on tag),TestResponseTarget_p1_inverse,1659,potipe,#TRIALTEMPLATE,229481,#PARTBLOCKS,#ALLBLOCKS,Devoicing,437,p,NonFinal,#PART,#CORRECT
415,#EXPTID,DispreferenceFirst,dispreferenceFirst_inverse,-0.6954102920723226,#TRIAL,#PARTICIPANTID,(based on tag),TestResponseTarget_p1_inverse,1438,gotepe,#TRIALTEMPLATE,231071,#PARTBLOCKS,#ALLBLOCKS,Devoicing,438,p,NonFinal,#PART,#CORRECT
416,#EXPTID,DispreferenceFirst,dispreferenceFirst_inverse,-0.12941633234114144,#TRIAL,#PARTICIPANTID,(any response),TestResponseTarget_p1_inverse,7727, ,#TRIALTEMPLATE,237360,#PARTBLOCKS,#ALLBLOCKS,Devoicing,439,,NonFinal,#PART,#CORRECT
417,#EXPTID,DispreferenceFirst,dispreferenceFirst_inverse,-0.7604562737642585,#TRIAL,#PARTICIPANTID,(based on tag),TestResponseTarget_p1_inverse,1315,dokub,#TRIALTEMPLATE,238910,#PARTBLOCKS,#ALLBLOCKS,Voicing,440,b,Final,#PART,#CORRECT
418,#EXPTID,DispreferenceFirst,dispreferenceFirst_inverse,-0.5564830272676683,#TRIAL,#PARTICIPANTID,(based on tag),TestResponseTarget_p1_inverse,1797,degob,#TRIALTEMPLATE,240850,#PARTBLOCKS,#ALLBLOCKS,Voicing,441,b,Final,#PART,#CORRECT
419,#EXPTID,DispreferenceFirst,dispreferenceFirst_inverse,-0.9737098344693281,#TRIAL,#PARTICIPANTID,(based on tag),TestResponseTarget_p1_inverse,1027,dikeb,#TRIALTEMPLATE,242069,#PARTBLOCKS,#ALLBLOCKS,Voicing,442,b,Final,#PART,#CORRECT
420,#EXPTID,DispreferenceFirst,dispreferenceFirst_inverse,-0.7342143906020558,#TRIAL,#PARTICIPANTID,(based on tag),TestResponseTarget_p1_inverse,1362,todipe,#TRIALTEMPLATE,243579,#PARTBLOCKS,#ALLBLOCKS,Devoicing,443,p,NonFinal,#PART,#CORRECT
421,#EXPTID,DispreferenceFirst,dispreferenceFirst_inverse,-0.8818342151675485,#TRIAL,#PARTICIPANTID,(based on tag),TestResponseTarget_p1_inverse,1134,todib,#TRIALTEMPLATE,244868,#PARTBLOCKS,#ALLBLOCKS,Voicing,444,b,Final,#PART,#CORRECT
422,#EXPTID,DispreferenceFirst,dispreferenceFirst_inverse,-0.9363295880149812,#TRIAL,#PARTICIPANTID,(based on tag),TestResponseTarget_p1_inverse,1068,gutob,#TRIALTEMPLATE,246148,#PARTBLOCKS,#ALLBLOCKS,Voicing,445,b,Final,#PART,#CORRECT
423,#EXPTID,DispreferenceFirst,dispreferenceFirst_inverse,-0.7385524372230429,#TRIAL,#PARTICIPANTID,(based on tag),TestResponseTarget_p1_inverse,1354,potipe,#TRIALTEMPLATE,247678,#PARTBLOCKS,#ALLBLOCKS,Devoicing,446,p,NonFinal,#PART,#CORRECT
424,#EXPTID,DispreferenceFirst,dispreferenceFirst_inverse,-0.8968609865470852,#TRIAL,#PARTICIPANTID,(based on tag),TestResponseTarget_p1_inverse,1115,goteb,#TRIALTEMPLATE,248948,#PARTBLOCKS,#ALLBLOCKS,Voicing,447,b,Final,#PART,#CORRECT
425,#EXPTID,DispreferenceFirst,dispreferenceFirst_inverse,-0.7163323782234957,#TRIAL,#PARTICIPANTID,(based on tag),TestResponseTarget_p1_inverse,1396,bugipe,#TRIALTEMPLATE,250497,#PARTBLOCKS,#ALLBLOCKS,Devoicing,448,p,NonFinal,#PART,#CORRECT
426,#EXPTID,DispreferenceFirst,dispreferenceFirst_inverse,-0.6345177664974619,#TRIAL,#PARTICIPANTID,(based on tag),TestResponseTarget_p1_inverse,1576,todupe,#TRIALTEMPLATE,252227,#PARTBLOCKS,#ALLBLOCKS,Devoicing,449,p,NonFinal,#PART,#CORRECT
427,#EXPTID,DispreferenceFirst,dispreferenceFirst_inverse,-0.6622516556291391,#TRIAL,#PARTICIPANTID,(based on tag),TestResponseTarget_p1_inverse,1510,bikupe,#TRIALTEMPLATE,253887,#PARTBLOCKS,#ALLBLOCKS,Devoicing,450,p,NonFinal,#PART,#CORRECT
428,#EXPTID,DispreferenceFirst,dispreferenceFirst_inverse,-0.6373486297004461,#TRIAL,#PARTICIPANTID,(based on tag),TestResponseTarget_p1_inverse,1569,bogepe,#TRIALTEMPLATE,255607,#PARTBLOCKS,#ALLBLOCKS,Devoicing,451,p,NonFinal,#PART,#CORRECT
429,#EXPTID,DispreferenceFirst,dispreferenceFirst_inverse,-0.8488964346349746,#TRIAL,#PARTICIPANTID,(based on tag),TestResponseTarget_p1_inverse,1178,bogeb,#TRIALTEMPLATE,256936,#PARTBLOCKS,#ALLBLOCKS,Voicing,452,b,Final,#PART,#CORRECT
430,#EXPTID,DispreferenceFirst,dispreferenceFirst_inverse,-0.7057163020465773,#TRIAL,#PARTICIPANTID,(based on tag),TestResponseTarget_p1_inverse,1417,pidope,#TRIALTEMPLATE,258506,#PARTBLOCKS,#ALLBLOCKS,Devoicing,453,p,NonFinal,#PART,#CORRECT
