,expt_id,Group,group_id,invRT,Trial,participant_id,response_correct,response_name,response_rt,stimuli_presented,trial_template,trial_duration,PartBlocks,AllBlocks,Pattern,trial_num,PB,Final,Part,Correct
1,,DispreferenceFirst,dispreferenceFirst,-333.3333333333333,,,,,3,todib,,108402,,,Voicing,24,b,Final,,
2,,DispreferenceFirst,dispreferenceFirst,-0.5656108597285068,,,,,1768,bogepe,,111222,,,Devoicing,25,p,NonFinal,,
3,,DispreferenceFirst,dispreferenceFirst,-0.7077140835102619,,,,,1413,goteb,,112842,,,Voicing,26,b,Final,,
4,,DispreferenceFirst,dispreferenceFirst,-0.6939625260235948,,,,,1441,pigeb,,114481,,,Voicing,27,b,Final,,
5,,DispreferenceFirst,dispreferenceFirst,-0.5973715651135006,,,,,1674,bikube,,116341,,,Devoicing,28,p,NonFinal,,
6,,DispreferenceFirst,dispreferenceFirst,-0.7309941520467836,,,,,1368,dokupe,,117871,,,Devoicing,29,p,NonFinal,,
7,,DispreferenceFirst,dispreferenceFirst,-0.7440476190476191,,,,,1344,bugipe,,119370,,,Devoicing,30,p,NonFinal,,
8,,DispreferenceFirst,dispreferenceFirst,-0.8496176720475785,,,,,1177,dokub,,120690,,,Voicing,31,b,Final,,
9,,DispreferenceFirst,dispreferenceFirst,-0.8012820512820513,,,,,1248,todupe,,122110,,,Devoicing,32,p,NonFinal,,
10,,DispreferenceFirst,dispreferenceFirst,-0.8298755186721992,,,,,1205,degope,,123479,,,Devoicing,33,p,NonFinal,,
11,,DispreferenceFirst,dispreferenceFirst,-0.9505703422053232,,,,,1052,tekub,,124730,,,Voicing,34,b,Final,,
12,,DispreferenceFirst,dispreferenceFirst,-0.8025682182985554,,,,,1246,dikepe,,126169,,,Devoicing,35,p,NonFinal,,
13,,DispreferenceFirst,dispreferenceFirst,-0.7479431563201197,,,,,1337,pidope,,127649,,,Devoicing,36,p,NonFinal,,
14,,DispreferenceFirst,dispreferenceFirst,-0.9775171065493646,,,,,1023,bikub,,128829,,,Voicing,37,b,Final,,
15,,DispreferenceFirst,dispreferenceFirst,-0.8873114463176575,,,,,1127,bidope,,130158,,,Devoicing,38,p,NonFinal,,
16,,DispreferenceFirst,dispreferenceFirst,-0.8460236886632826,,,,,1182,bugib,,131578,,,Voicing,39,b,Final,,
17,,DispreferenceFirst,dispreferenceFirst,-0.7656967840735069,,,,,1306,tekupe,,133048,,,Devoicing,40,p,NonFinal,,
18,,DispreferenceFirst,dispreferenceFirst,-0.7331378299120235,,,,,1364,gotepe,,134578,,,Devoicing,41,p,NonFinal,,
19,,DispreferenceFirst,dispreferenceFirst,-0.8237232289950577,,,,,1214,dikeb,,135937,,,Voicing,42,b,Final,,
20,,DispreferenceFirst,dispreferenceFirst,-0.8445945945945946,,,,,1184,potib,,137267,,,Voicing,43,b,Final,,
21,,DispreferenceFirst,dispreferenceFirst,-0.757002271006813,,,,,1321,potipe,,138747,,,Devoicing,44,p,NonFinal,,
22,,DispreferenceFirst,dispreferenceFirst,-0.5945303210463734,,,,,1682,degob,,140627,,,Voicing,45,b,Final,,
23,,DispreferenceFirst,dispreferenceFirst,-0.8123476848090982,,,,,1231,dogipe,,142056,,,Devoicing,46,p,NonFinal,,
24,,DispreferenceFirst,dispreferenceFirst,-0.7107320540156361,,,,,1407,pigepe,,143616,,,Devoicing,47,p,NonFinal,,
25,,DispreferenceFirst,dispreferenceFirst,-0.9652509652509652,,,,,1036,bidob,,144856,,,Voicing,48,b,Final,,
26,,DispreferenceFirst,dispreferenceFirst,-0.9578544061302682,,,,,1044,bogeb,,146045,,,Voicing,49,b,Final,,
27,,DispreferenceFirst,dispreferenceFirst,-0.8382229673093042,,,,,1193,todipe,,147395,,,Devoicing,50,p,NonFinal,,
28,,DispreferenceFirst,dispreferenceFirst,-1.1049723756906078,,,,,905,pidob,,148525,,,Voicing,51,b,Final,,
29,,DispreferenceFirst,dispreferenceFirst,-0.8271298593879239,,,,,1209,gutope,,149895,,,Devoicing,52,p,NonFinal,,
30,,DispreferenceFirst,dispreferenceFirst,-1.0319917440660475,,,,,969,todub,,151064,,,Voicing,53,b,Final,,
31,,DispreferenceFirst,dispreferenceFirst,-0.856898029134533,,,,,1167,gutob,,152374,,,Voicing,54,b,Final,,
32,,DispreferenceFirst,dispreferenceFirst,-0.9208103130755064,,,,,1086,dogib,,153614,,,Voicing,55,b,Final,,
33,,DispreferenceFirst,dispreferenceFirst,-0.08275405494869248,,,,,12084, ,,164612,,,Devoicing,56,,NonFinal,,
34,,DispreferenceFirst,dispreferenceFirst,-0.7331378299120235,,,,,1364,bugipe,,166112,,,Devoicing,57,p,NonFinal,,
35,,DispreferenceFirst,dispreferenceFirst,-0.777000777000777,,,,,1287,bugib,,167541,,,Voicing,58,b,Final,,
36,,DispreferenceFirst,dispreferenceFirst,-0.6153846153846154,,,,,1625,potib,,169311,,,Voicing,59,b,Final,,
37,,DispreferenceFirst,dispreferenceFirst,-0.8216926869350862,,,,,1217,goteb,,170721,,,Voicing,60,b,Final,,
38,,DispreferenceFirst,dispreferenceFirst,-0.9149130832570905,,,,,1093,todub,,172001,,,Voicing,61,b,Final,,
39,,DispreferenceFirst,dispreferenceFirst,-0.7616146230007617,,,,,1313,degope,,173470,,,Devoicing,62,p,NonFinal,,
40,,DispreferenceFirst,dispreferenceFirst,-1.0298661174047374,,,,,971,dikeb,,174610,,,Voicing,63,b,Final,,
41,,DispreferenceFirst,dispreferenceFirst,-1.1933174224343674,,,,,838,pidob,,175600,,,Voicing,64,b,Final,,
42,,DispreferenceFirst,dispreferenceFirst,-1.203369434416366,,,,,831,bogeb,,176660,,,Voicing,65,b,Final,,
43,,DispreferenceFirst,dispreferenceFirst,-0.8688097306689835,,,,,1151,gutope,,178039,,,Devoicing,66,p,NonFinal,,
44,,DispreferenceFirst,dispreferenceFirst,-0.8084074373484236,,,,,1237,tekupe,,179529,,,Devoicing,67,p,NonFinal,,
45,,DispreferenceFirst,dispreferenceFirst,-0.8382229673093042,,,,,1193,bidope,,180889,,,Devoicing,68,p,NonFinal,,
46,,DispreferenceFirst,dispreferenceFirst,-1.0224948875255624,,,,,978,bidob,,182039,,,Voicing,69,b,Final,,
47,,DispreferenceFirst,dispreferenceFirst,-0.7423904974016332,,,,,1347,pidope,,183538,,,Devoicing,70,p,NonFinal,,
48,,DispreferenceFirst,dispreferenceFirst,-0.9041591320072333,,,,,1106,potipe,,184788,,,Devoicing,71,p,NonFinal,,
49,,DispreferenceFirst,dispreferenceFirst,-0.7299270072992701,,,,,1370,gotepe,,186458,,,Devoicing,72,p,NonFinal,,
50,,DispreferenceFirst,dispreferenceFirst,-0.78125,,,,,1280,dikepe,,187878,,,Devoicing,73,p,NonFinal,,
51,,DispreferenceFirst,dispreferenceFirst,-0.8051529790660226,,,,,1242,pigepe,,189277,,,Devoicing,74,p,NonFinal,,
52,,DispreferenceFirst,dispreferenceFirst,-0.7880220646178093,,,,,1269,dogib,,190737,,,Voicing,75,b,Final,,
53,,DispreferenceFirst,dispreferenceFirst,-0.8865248226950354,,,,,1128,todib,,192057,,,Voicing,76,b,Final,,
54,,DispreferenceFirst,dispreferenceFirst,-0.7604562737642585,,,,,1315,dogipe,,193577,,,Devoicing,77,p,NonFinal,,
55,,DispreferenceFirst,dispreferenceFirst,-0.9624639076034649,,,,,1039,gutob,,194786,,,Voicing,78,b,Final,,
56,,DispreferenceFirst,dispreferenceFirst,-0.8084074373484236,,,,,1237,todipe,,196166,,,Devoicing,79,p,NonFinal,,
57,,DispreferenceFirst,dispreferenceFirst,-0.8264462809917356,,,,,1210,todupe,,197566,,,Devoicing,80,p,NonFinal,,
58,,DispreferenceFirst,dispreferenceFirst,-1.0,,,,,1000,pigeb,,198736,,,Voicing,81,b,Final,,
59,,DispreferenceFirst,dispreferenceFirst,-0.8920606601248885,,,,,1121,dokupe,,200016,,,Devoicing,82,p,NonFinal,,
60,,DispreferenceFirst,dispreferenceFirst,-0.9049773755656109,,,,,1105,bikub,,201425,,,Voicing,83,b,Final,,
61,,DispreferenceFirst,dispreferenceFirst,-0.8169934640522876,,,,,1224,bogepe,,202815,,,Devoicing,84,p,NonFinal,,
62,,DispreferenceFirst,dispreferenceFirst,-0.9689922480620154,,,,,1032,tekub,,203995,,,Voicing,85,b,Final,,
63,,DispreferenceFirst,dispreferenceFirst,-1.0471204188481675,,,,,955,dokub,,205095,,,Voicing,86,b,Final,,
64,,DispreferenceFirst,dispreferenceFirst,-0.9587727708533078,,,,,1043,degob,,206284,,,Voicing,87,b,Final,,
65,,DispreferenceFirst,dispreferenceFirst,-0.7117437722419929,,,,,1405,bikube,,207844,,,Devoicing,88,p,NonFinal,,
66,,DispreferenceFirst,dispreferenceFirst,-0.04851542790607413,,,,,20612, ,,227051,,,Devoicing,89,,NonFinal,,
67,,DispreferenceFirst,dispreferenceFirst,-0.7204610951008645,,,,,1388,tekupe,,228620,,,Devoicing,90,p,NonFinal,,
68,,DispreferenceFirst,dispreferenceFirst,-1.016260162601626,,,,,984,bugib,,229750,,,Voicing,91,b,Final,,
69,,DispreferenceFirst,dispreferenceFirst,-0.8045052292839904,,,,,1243,todipe,,231150,,,Devoicing,92,p,NonFinal,,
70,,DispreferenceFirst,dispreferenceFirst,-0.8481764206955047,,,,,1179,bidob,,232499,,,Voicing,93,b,Final,,
71,,DispreferenceFirst,dispreferenceFirst,-0.7446016381236039,,,,,1343,pidope,,233999,,,Devoicing,94,p,NonFinal,,
72,,DispreferenceFirst,dispreferenceFirst,-0.7616146230007617,,,,,1313,bogepe,,235499,,,Devoicing,95,p,NonFinal,,
73,,DispreferenceFirst,dispreferenceFirst,-0.7830853563038371,,,,,1277,bidope,,236979,,,Devoicing,96,p,NonFinal,,
74,,DispreferenceFirst,dispreferenceFirst,-0.8613264427217916,,,,,1161,bugipe,,238288,,,Devoicing,97,p,NonFinal,,
75,,DispreferenceFirst,dispreferenceFirst,-0.9523809523809523,,,,,1050,todib,,239588,,,Voicing,98,b,Final,,
76,,DispreferenceFirst,dispreferenceFirst,-0.8598452278589854,,,,,1163,degope,,240928,,,Devoicing,99,p,NonFinal,,
77,,DispreferenceFirst,dispreferenceFirst,-0.8488964346349746,,,,,1178,dogipe,,242348,,,Devoicing,100,p,NonFinal,,
78,,DispreferenceFirst,dispreferenceFirst,-1.0471204188481675,,,,,955,dokub,,243537,,,Voicing,101,b,Final,,
79,,DispreferenceFirst,dispreferenceFirst,-0.8764241893076249,,,,,1141,dokupe,,244887,,,Devoicing,102,p,NonFinal,,
80,,DispreferenceFirst,dispreferenceFirst,-0.6684491978609626,,,,,1496,potib,,246657,,,Voicing,103,b,Final,,
81,,DispreferenceFirst,dispreferenceFirst,-0.9940357852882704,,,,,1006,gutob,,247807,,,Voicing,104,b,Final,,
82,,DispreferenceFirst,dispreferenceFirst,-37.03703703703704,,,,,27,todub,,247996,,,Voicing,105,b,Final,,
83,,DispreferenceFirst,dispreferenceFirst,-1.1560693641618498,,,,,865,dogib,,249886,,,Voicing,106,b,Final,,
84,,DispreferenceFirst,dispreferenceFirst,-0.8849557522123894,,,,,1130,pidob,,251196,,,Voicing,107,b,Final,,
85,,DispreferenceFirst,dispreferenceFirst,-0.9276437847866419,,,,,1078,goteb,,252426,,,Voicing,108,b,Final,,
86,,DispreferenceFirst,dispreferenceFirst,-1.0822510822510822,,,,,924,dikeb,,253495,,,Voicing,109,b,Final,,
87,,DispreferenceFirst,dispreferenceFirst,-0.9328358208955224,,,,,1072,degob,,254745,,,Voicing,110,b,Final,,
88,,DispreferenceFirst,dispreferenceFirst,-0.9041591320072333,,,,,1106,bikub,,256065,,,Voicing,111,b,Final,,
89,,DispreferenceFirst,dispreferenceFirst,-0.8771929824561403,,,,,1140,todupe,,257355,,,Devoicing,112,p,NonFinal,,
90,,DispreferenceFirst,dispreferenceFirst,-0.8382229673093042,,,,,1193,gutope,,258784,,,Devoicing,113,p,NonFinal,,
91,,DispreferenceFirst,dispreferenceFirst,-0.9337068160597572,,,,,1071,dikepe,,260064,,,Devoicing,114,p,NonFinal,,
92,,DispreferenceFirst,dispreferenceFirst,-1.0204081632653061,,,,,980,tekub,,261354,,,Voicing,115,b,Final,,
93,,DispreferenceFirst,dispreferenceFirst,-1.0845986984815619,,,,,922,pigeb,,262424,,,Voicing,116,b,Final,,
94,,DispreferenceFirst,dispreferenceFirst,-0.78125,,,,,1280,pigepe,,263864,,,Devoicing,117,p,NonFinal,,
95,,DispreferenceFirst,dispreferenceFirst,-0.8673026886383348,,,,,1153,gotepe,,265163,,,Devoicing,118,p,NonFinal,,
96,,DispreferenceFirst,dispreferenceFirst,-0.9718172983479106,,,,,1029,bogeb,,266373,,,Voicing,119,b,Final,,
97,,DispreferenceFirst,dispreferenceFirst,-0.7547169811320755,,,,,1325,bikube,,267853,,,Devoicing,120,p,NonFinal,,
98,,DispreferenceFirst,dispreferenceFirst,-0.9727626459143969,,,,,1028,potipe,,269043,,,Devoicing,121,p,NonFinal,,
99,,DispreferenceFirst,dispreferenceFirst,-0.08616232982939859,,,,,11606, ,,279621,,,Devoicing,122,,NonFinal,,
100,,DispreferenceFirst,dispreferenceFirst,-0.9363295880149812,,,,,1068,goteb,,280861,,,Voicing,123,b,Final,,
101,,DispreferenceFirst,dispreferenceFirst,-1.0615711252653928,,,,,942,todib,,281960,,,Voicing,124,b,Final,,
102,,DispreferenceFirst,dispreferenceFirst,-0.8169934640522876,,,,,1224,dokupe,,283330,,,Devoicing,125,p,NonFinal,,
103,,DispreferenceFirst,dispreferenceFirst,-0.9259259259259259,,,,,1080,pigepe,,284600,,,Devoicing,126,p,NonFinal,,
104,,DispreferenceFirst,dispreferenceFirst,-1.0427528675703859,,,,,959,gutob,,285859,,,Voicing,127,b,Final,,
105,,DispreferenceFirst,dispreferenceFirst,-1.1123470522803114,,,,,899,bikub,,286919,,,Voicing,128,b,Final,,
106,,DispreferenceFirst,dispreferenceFirst,-0.9794319294809011,,,,,1021,potib,,288149,,,Voicing,129,b,Final,,
107,,DispreferenceFirst,dispreferenceFirst,-0.8920606601248885,,,,,1121,tekupe,,289469,,,Devoicing,130,p,NonFinal,,
108,,DispreferenceFirst,dispreferenceFirst,-0.9302325581395349,,,,,1075,pidope,,290809,,,Devoicing,131,p,NonFinal,,
109,,DispreferenceFirst,dispreferenceFirst,-0.8810572687224669,,,,,1135,bugipe,,292298,,,Devoicing,132,p,NonFinal,,
110,,DispreferenceFirst,dispreferenceFirst,-0.9442870632672332,,,,,1059,dokub,,293638,,,Voicing,133,b,Final,,
111,,DispreferenceFirst,dispreferenceFirst,-1.1389521640091116,,,,,878,bogeb,,294658,,,Voicing,134,b,Final,,
112,,DispreferenceFirst,dispreferenceFirst,-1.1820330969267139,,,,,846,dikeb,,295728,,,Voicing,135,b,Final,,
113,,DispreferenceFirst,dispreferenceFirst,-0.819000819000819,,,,,1221,degope,,297147,,,Devoicing,136,p,NonFinal,,
114,,DispreferenceFirst,dispreferenceFirst,-0.8810572687224669,,,,,1135,bugib,,298467,,,Voicing,137,b,Final,,
115,,DispreferenceFirst,dispreferenceFirst,-0.8375209380234506,,,,,1194,bidope,,299807,,,Devoicing,138,p,NonFinal,,
116,,DispreferenceFirst,dispreferenceFirst,-0.9514747859181731,,,,,1051,degob,,301027,,,Voicing,139,b,Final,,
117,,DispreferenceFirst,dispreferenceFirst,-1.0695187165775402,,,,,935,todub,,302117,,,Voicing,140,b,Final,,
118,,DispreferenceFirst,dispreferenceFirst,-1.3157894736842106,,,,,760,pidob,,303036,,,Voicing,141,b,Final,,
119,,DispreferenceFirst,dispreferenceFirst,-0.8665511265164645,,,,,1154,potipe,,304496,,,Devoicing,142,p,NonFinal,,
120,,DispreferenceFirst,dispreferenceFirst,-0.7524454477050414,,,,,1329,dogipe,,306076,,,Devoicing,143,p,NonFinal,,
121,,DispreferenceFirst,dispreferenceFirst,-0.8976660682226212,,,,,1114,pigeb,,307335,,,Voicing,144,b,Final,,
122,,DispreferenceFirst,dispreferenceFirst,-0.7824726134585289,,,,,1278,todupe,,308755,,,Devoicing,145,p,NonFinal,,
123,,DispreferenceFirst,dispreferenceFirst,-0.8787346221441125,,,,,1138,gotepe,,310035,,,Devoicing,146,p,NonFinal,,
124,,DispreferenceFirst,dispreferenceFirst,-0.8756567425569177,,,,,1142,dikepe,,311415,,,Devoicing,147,p,NonFinal,,
125,,DispreferenceFirst,dispreferenceFirst,-0.9416195856873822,,,,,1062,tekub,,312714,,,Voicing,148,b,Final,,
126,,DispreferenceFirst,dispreferenceFirst,-0.8123476848090982,,,,,1231,todipe,,314104,,,Devoicing,149,p,NonFinal,,
127,,DispreferenceFirst,dispreferenceFirst,-0.8525149190110827,,,,,1173,gutope,,315464,,,Devoicing,150,p,NonFinal,,
128,,DispreferenceFirst,dispreferenceFirst,-0.7849293563579278,,,,,1274,bogepe,,316974,,,Devoicing,151,p,NonFinal,,
129,,DispreferenceFirst,dispreferenceFirst,-1.0080645161290323,,,,,992,bidob,,318124,,,Voicing,152,b,Final,,
130,,DispreferenceFirst,dispreferenceFirst,-0.7727975270479135,,,,,1294,bikube,,319563,,,Devoicing,153,p,NonFinal,,
131,,DispreferenceFirst,dispreferenceFirst,-0.8460236886632826,,,,,1182,dogib,,320893,,,Voicing,154,b,Final,,
132,,DispreferenceFirst,dispreferenceFirst,-0.12514078338130397,,,,,7991, ,,327702,,,Devoicing,155,,NonFinal,,
133,,DispreferenceFirst,dispreferenceFirst,-0.9727626459143969,,,,,1028,todub,,328901,,,Voicing,156,b,Final,,
134,,DispreferenceFirst,dispreferenceFirst,-0.7987220447284346,,,,,1252,bikube,,330341,,,Devoicing,157,p,NonFinal,,
135,,DispreferenceFirst,dispreferenceFirst,-1.0405827263267429,,,,,961,gutob,,331501,,,Voicing,158,b,Final,,
136,,DispreferenceFirst,dispreferenceFirst,-0.7530120481927711,,,,,1328,potipe,,332981,,,Devoicing,159,p,NonFinal,,
137,,DispreferenceFirst,dispreferenceFirst,-0.7092198581560284,,,,,1410,degob,,334540,,,Voicing,160,b,Final,,
138,,DispreferenceFirst,dispreferenceFirst,-0.724112961622013,,,,,1381,pidope,,336070,,,Devoicing,161,p,NonFinal,,
139,,DispreferenceFirst,dispreferenceFirst,-0.8787346221441125,,,,,1138,todipe,,337350,,,Devoicing,162,p,NonFinal,,
140,,DispreferenceFirst,dispreferenceFirst,-0.916590284142988,,,,,1091,bogeb,,338739,,,Voicing,163,b,Final,,
141,,DispreferenceFirst,dispreferenceFirst,-1.0204081632653061,,,,,980,dikeb,,339860,,,Voicing,164,b,Final,,
142,,DispreferenceFirst,dispreferenceFirst,-0.6548788474132285,,,,,1527,gutope,,341579,,,Devoicing,165,p,NonFinal,,
143,,DispreferenceFirst,dispreferenceFirst,-0.7955449482895783,,,,,1257,tekupe,,343039,,,Devoicing,166,p,NonFinal,,
144,,DispreferenceFirst,dispreferenceFirst,-0.6958942240779401,,,,,1437,dikepe,,344619,,,Devoicing,167,p,NonFinal,,
145,,DispreferenceFirst,dispreferenceFirst,-1.0050251256281406,,,,,995,pigeb,,345769,,,Voicing,168,b,Final,,
146,,DispreferenceFirst,dispreferenceFirst,-1.0638297872340425,,,,,940,todib,,346858,,,Voicing,169,b,Final,,
147,,DispreferenceFirst,dispreferenceFirst,-0.8431703204047217,,,,,1186,dogipe,,348198,,,Devoicing,170,p,NonFinal,,
148,,DispreferenceFirst,dispreferenceFirst,-0.8650519031141869,,,,,1156,bidob,,349578,,,Voicing,171,b,Final,,
149,,DispreferenceFirst,dispreferenceFirst,-0.9578544061302682,,,,,1044,goteb,,350768,,,Voicing,172,b,Final,,
150,,DispreferenceFirst,dispreferenceFirst,-1.0493179433368311,,,,,953,potib,,351867,,,Voicing,173,b,Final,,
151,,DispreferenceFirst,dispreferenceFirst,-1.183431952662722,,,,,845,dokub,,352867,,,Voicing,174,b,Final,,
152,,DispreferenceFirst,dispreferenceFirst,-0.8110300081103001,,,,,1233,bidope,,354297,,,Devoicing,175,p,NonFinal,,
153,,DispreferenceFirst,dispreferenceFirst,-0.9433962264150944,,,,,1060,dokupe,,355527,,,Devoicing,176,p,NonFinal,,
154,,DispreferenceFirst,dispreferenceFirst,-1.0050251256281406,,,,,995,bugib,,356876,,,Voicing,177,b,Final,,
155,,DispreferenceFirst,dispreferenceFirst,-1.1806375442739079,,,,,847,dogib,,357916,,,Voicing,178,b,Final,,
156,,DispreferenceFirst,dispreferenceFirst,-0.9267840593141798,,,,,1079,gotepe,,359196,,,Devoicing,179,p,NonFinal,,
157,,DispreferenceFirst,dispreferenceFirst,-0.9852216748768473,,,,,1015,bugipe,,360466,,,Devoicing,180,p,NonFinal,,
158,,DispreferenceFirst,dispreferenceFirst,-0.8084074373484236,,,,,1237,pigepe,,362106,,,Devoicing,181,p,NonFinal,,
159,,DispreferenceFirst,dispreferenceFirst,-0.6406149903907752,,,,,1561,tekub,,363855,,,Voicing,182,b,Final,,
160,,DispreferenceFirst,dispreferenceFirst,-0.7680491551459293,,,,,1302,degope,,365385,,,Devoicing,183,p,NonFinal,,
161,,DispreferenceFirst,dispreferenceFirst,-0.7256894049346879,,,,,1378,bikub,,366905,,,Voicing,184,b,Final,,
162,,DispreferenceFirst,dispreferenceFirst,-0.601684717208183,,,,,1662,bogepe,,368754,,,Devoicing,185,p,NonFinal,,
163,,DispreferenceFirst,dispreferenceFirst,-0.7173601147776184,,,,,1394,todupe,,370334,,,Devoicing,186,p,NonFinal,,
164,,DispreferenceFirst,dispreferenceFirst,-0.5608524957936063,,,,,1783,pidob,,372264,,,Voicing,187,b,Final,,
165,,DispreferenceFirst,dispreferenceFirst,-0.076103500761035,,,,,13140, ,,383621,,,Devoicing,188,,NonFinal,,
166,,DispreferenceFirst,dispreferenceFirst,-0.6868131868131868,,,,,1456,pigebe,,385261,,,Voicing,189,b,NonFinal,,
167,,DispreferenceFirst,dispreferenceFirst,-0.6779661016949152,,,,,1475,bidop,,386891,,,Devoicing,190,p,Final,,
168,,DispreferenceFirst,dispreferenceFirst,-0.45599635202918376,,,,,2193,todibe,,389291,,,Voicing,191,b,NonFinal,,
169,,DispreferenceFirst,dispreferenceFirst,-0.5521811154058531,,,,,1811,gotebe,,391290,,,Voicing,192,b,NonFinal,,
170,,DispreferenceFirst,dispreferenceFirst,-0.5382131324004306,,,,,1858,dogip,,393360,,,Devoicing,193,p,Final,,
171,,DispreferenceFirst,dispreferenceFirst,-0.6574621959237343,,,,,1521,bogebe,,395069,,,Voicing,194,b,NonFinal,,
172,,DispreferenceFirst,dispreferenceFirst,-0.746268656716418,,,,,1340,pidop,,396549,,,Devoicing,195,p,Final,,
173,,DispreferenceFirst,dispreferenceFirst,-0.8680555555555556,,,,,1152,gutop,,397899,,,Devoicing,196,p,Final,,
174,,DispreferenceFirst,dispreferenceFirst,-0.6501950585175552,,,,,1538,tekube,,399589,,,Voicing,197,b,NonFinal,,
175,,DispreferenceFirst,dispreferenceFirst,-0.7336757153338225,,,,,1363,bugibe,,401098,,,Voicing,198,b,NonFinal,,
176,,DispreferenceFirst,dispreferenceFirst,-0.9578544061302682,,,,,1044,pigep,,402288,,,Devoicing,199,p,Final,,
177,,DispreferenceFirst,dispreferenceFirst,-0.6747638326585695,,,,,1482,todube,,403918,,,Voicing,200,b,NonFinal,,
178,,DispreferenceFirst,dispreferenceFirst,-0.6793478260869565,,,,,1472,bikube,,405548,,,Voicing,201,b,NonFinal,,
179,,DispreferenceFirst,dispreferenceFirst,-0.648508430609598,,,,,1542,potibe,,407277,,,Voicing,202,b,NonFinal,,
180,,DispreferenceFirst,dispreferenceFirst,-0.8250825082508251,,,,,1212,dokube,,408687,,,Voicing,203,b,NonFinal,,
181,,DispreferenceFirst,dispreferenceFirst,-0.7662835249042146,,,,,1305,todip,,410137,,,Devoicing,204,p,Final,,
182,,DispreferenceFirst,dispreferenceFirst,-0.8680555555555556,,,,,1152,bugip,,411436,,,Devoicing,205,p,Final,,
183,,DispreferenceFirst,dispreferenceFirst,-0.32894736842105265,,,,,3040,pidobe,,414636,,,Voicing,206,b,NonFinal,,
184,,DispreferenceFirst,dispreferenceFirst,-0.687757909215956,,,,,1454,gutobe,,416265,,,Voicing,207,b,NonFinal,,
185,,DispreferenceFirst,dispreferenceFirst,-0.7168458781362007,,,,,1395,dogibe,,417805,,,Voicing,208,b,NonFinal,,
186,,DispreferenceFirst,dispreferenceFirst,-0.8802816901408451,,,,,1136,todup,,419145,,,Devoicing,209,p,Final,,
187,,DispreferenceFirst,dispreferenceFirst,-0.9930486593843099,,,,,1007,bikup,,420315,,,Devoicing,210,p,Final,,
188,,DispreferenceFirst,dispreferenceFirst,-0.7485029940119761,,,,,1336,degobe,,421794,,,Voicing,211,b,NonFinal,,
189,,DispreferenceFirst,dispreferenceFirst,-0.8680555555555556,,,,,1152,potip,,423104,,,Devoicing,212,p,Final,,
190,,DispreferenceFirst,dispreferenceFirst,-0.8291873963515755,,,,,1206,bidobe,,424454,,,Voicing,213,b,NonFinal,,
191,,DispreferenceFirst,dispreferenceFirst,-0.5714285714285714,,,,,1750,dokup,,426344,,,Devoicing,214,p,Final,,
192,,DispreferenceFirst,dispreferenceFirst,-0.7905138339920948,,,,,1265,degop,,427813,,,Devoicing,215,p,Final,,
193,,DispreferenceFirst,dispreferenceFirst,-0.9033423667570009,,,,,1107,gotep,,429093,,,Devoicing,216,p,Final,,
194,,DispreferenceFirst,dispreferenceFirst,-0.8826125330979699,,,,,1133,tekup,,430383,,,Devoicing,217,p,Final,,
195,,DispreferenceFirst,dispreferenceFirst,-0.9363295880149812,,,,,1068,dikep,,431603,,,Devoicing,218,p,Final,,
196,,DispreferenceFirst,dispreferenceFirst,-0.4631773969430292,,,,,2159,dikebe,,433922,,,Voicing,219,b,NonFinal,,
197,,DispreferenceFirst,dispreferenceFirst,-1.091703056768559,,,,,916,bogep,,435022,,,Devoicing,220,p,Final,,
198,,DispreferenceFirst,dispreferenceFirst,-0.06696129637069774,,,,,14934, ,,449040,,,Devoicing,221,,NonFinal,,
199,,DispreferenceFirst,dispreferenceFirst,-0.5200208008320333,,,,,1923,todibe,,451129,,,Voicing,222,b,NonFinal,,
200,,DispreferenceFirst,dispreferenceFirst,-0.9242144177449169,,,,,1082,bidop,,452399,,,Devoicing,223,p,Final,,
201,,DispreferenceFirst,dispreferenceFirst,-0.9891196834817013,,,,,1011,pigep,,453608,,,Devoicing,224,p,Final,,
202,,DispreferenceFirst,dispreferenceFirst,-0.8880994671403197,,,,,1126,tekup,,454928,,,Devoicing,225,p,Final,,
203,,DispreferenceFirst,dispreferenceFirst,-0.7092198581560284,,,,,1410,pigebe,,456498,,,Voicing,226,b,NonFinal,,
204,,DispreferenceFirst,dispreferenceFirst,-0.7189072609633357,,,,,1391,bogep,,458038,,,Devoicing,227,p,Final,,
205,,DispreferenceFirst,dispreferenceFirst,-0.7342143906020558,,,,,1362,dogibe,,459587,,,Voicing,228,b,NonFinal,,
206,,DispreferenceFirst,dispreferenceFirst,-0.8888888888888888,,,,,1125,dogip,,460857,,,Devoicing,229,p,Final,,
207,,DispreferenceFirst,dispreferenceFirst,-0.7220216606498195,,,,,1385,dikep,,462387,,,Devoicing,230,p,Final,,
208,,DispreferenceFirst,dispreferenceFirst,-0.831946755407654,,,,,1202,dokube,,463726,,,Voicing,231,b,NonFinal,,
209,,DispreferenceFirst,dispreferenceFirst,-0.942507068803016,,,,,1061,bugip,,464946,,,Devoicing,232,p,Final,,
210,,DispreferenceFirst,dispreferenceFirst,-0.9276437847866419,,,,,1078,gutop,,466166,,,Devoicing,233,p,Final,,
211,,DispreferenceFirst,dispreferenceFirst,-0.49677098857426727,,,,,2013,bogebe,,468326,,,Voicing,234,b,NonFinal,,
212,,DispreferenceFirst,dispreferenceFirst,-0.5668934240362812,,,,,1764,bikup,,470285,,,Devoicing,235,p,Final,,
213,,DispreferenceFirst,dispreferenceFirst,-0.5136106831022085,,,,,1947,bikube,,472375,,,Voicing,236,b,NonFinal,,
214,,DispreferenceFirst,dispreferenceFirst,-0.7751937984496124,,,,,1290,gutobe,,473805,,,Voicing,237,b,NonFinal,,
215,,DispreferenceFirst,dispreferenceFirst,-0.779423226812159,,,,,1283,potibe,,475275,,,Voicing,238,b,NonFinal,,
216,,DispreferenceFirst,dispreferenceFirst,-0.6983240223463687,,,,,1432,gotep,,476874,,,Devoicing,239,p,Final,,
217,,DispreferenceFirst,dispreferenceFirst,-0.8431703204047217,,,,,1186,degop,,478254,,,Devoicing,240,p,Final,,
218,,DispreferenceFirst,dispreferenceFirst,-0.8718395815170009,,,,,1147,todip,,479544,,,Devoicing,241,p,Final,,
219,,DispreferenceFirst,dispreferenceFirst,-0.8944543828264758,,,,,1118,dokup,,480823,,,Devoicing,242,p,Final,,
220,,DispreferenceFirst,dispreferenceFirst,-0.4800768122899664,,,,,2083,tekube,,483063,,,Voicing,243,b,NonFinal,,
221,,DispreferenceFirst,dispreferenceFirst,-0.5787037037037037,,,,,1728,dikebe,,484933,,,Voicing,244,b,NonFinal,,
222,,DispreferenceFirst,dispreferenceFirst,-0.4750593824228028,,,,,2105,gotebe,,487212,,,Voicing,245,b,NonFinal,,
223,,DispreferenceFirst,dispreferenceFirst,-0.5555555555555556,,,,,1800,bugibe,,489192,,,Voicing,246,b,NonFinal,,
224,,DispreferenceFirst,dispreferenceFirst,-0.8547008547008547,,,,,1170,degobe,,490562,,,Voicing,247,b,NonFinal,,
225,,DispreferenceFirst,dispreferenceFirst,-0.693000693000693,,,,,1443,pidobe,,492181,,,Voicing,248,b,NonFinal,,
226,,DispreferenceFirst,dispreferenceFirst,-0.9337068160597572,,,,,1071,pidop,,493411,,,Devoicing,249,p,Final,,
227,,DispreferenceFirst,dispreferenceFirst,-0.7662835249042146,,,,,1305,todube,,494881,,,Voicing,250,b,NonFinal,,
228,,DispreferenceFirst,dispreferenceFirst,-0.727802037845706,,,,,1374,bidobe,,496410,,,Voicing,251,b,NonFinal,,
229,,DispreferenceFirst,dispreferenceFirst,-43.47826086956522,,,,,23,potip,,496581,,,Devoicing,252,p,Final,,
230,,DispreferenceFirst,dispreferenceFirst,-0.3250975292587776,,,,,3076,todup,,500690,,,Devoicing,253,p,Final,,
231,,DispreferenceFirst,dispreferenceFirst,-0.06805498843065197,,,,,14694, ,,512308,,,Devoicing,254,,NonFinal,,
232,,DispreferenceFirst,dispreferenceFirst,-0.6925207756232687,,,,,1444,gotebe,,513917,,,Voicing,255,b,NonFinal,,
233,,DispreferenceFirst,dispreferenceFirst,-1.0683760683760684,,,,,936,todup,,515037,,,Devoicing,256,p,Final,,
234,,DispreferenceFirst,dispreferenceFirst,-0.45871559633027525,,,,,2180,bikup,,517407,,,Devoicing,257,p,Final,,
235,,DispreferenceFirst,dispreferenceFirst,-0.5020080321285141,,,,,1992,bugibe,,519596,,,Voicing,258,b,NonFinal,,
236,,DispreferenceFirst,dispreferenceFirst,-0.8944543828264758,,,,,1118,gotep,,520856,,,Devoicing,259,p,Final,,
237,,DispreferenceFirst,dispreferenceFirst,-0.5396654074473827,,,,,1853,bogebe,,522866,,,Voicing,260,b,NonFinal,,
238,,DispreferenceFirst,dispreferenceFirst,-0.7923930269413629,,,,,1262,dogip,,524325,,,Devoicing,261,p,Final,,
239,,DispreferenceFirst,dispreferenceFirst,-0.44583147570218457,,,,,2243,dogibe,,526755,,,Voicing,262,b,NonFinal,,
240,,DispreferenceFirst,dispreferenceFirst,-0.9149130832570905,,,,,1093,dikep,,528025,,,Devoicing,263,p,Final,,
241,,DispreferenceFirst,dispreferenceFirst,-0.8382229673093042,,,,,1193,pigep,,529374,,,Devoicing,264,p,Final,,
242,,DispreferenceFirst,dispreferenceFirst,-0.835421888053467,,,,,1197,gutop,,530734,,,Devoicing,265,p,Final,,
243,,DispreferenceFirst,dispreferenceFirst,-0.5865102639296188,,,,,1705,pidop,,532594,,,Devoicing,266,p,Final,,
244,,DispreferenceFirst,dispreferenceFirst,-0.4526935264825713,,,,,2209,bidop,,534974,,,Devoicing,267,p,Final,,
245,,DispreferenceFirst,dispreferenceFirst,-0.5643340857787811,,,,,1772,bikube,,536983,,,Voicing,268,b,NonFinal,,
246,,DispreferenceFirst,dispreferenceFirst,-0.8748906386701663,,,,,1143,todube,,538313,,,Voicing,269,b,NonFinal,,
247,,DispreferenceFirst,dispreferenceFirst,-0.8968609865470852,,,,,1115,dokube,,539673,,,Voicing,270,b,NonFinal,,
248,,DispreferenceFirst,dispreferenceFirst,-0.9267840593141798,,,,,1079,potibe,,540982,,,Voicing,271,b,NonFinal,,
249,,DispreferenceFirst,dispreferenceFirst,-1.001001001001001,,,,,999,gutobe,,542262,,,Voicing,272,b,NonFinal,,
250,,DispreferenceFirst,dispreferenceFirst,-0.929368029739777,,,,,1076,todip,,543642,,,Devoicing,273,p,Final,,
251,,DispreferenceFirst,dispreferenceFirst,-0.8912655971479501,,,,,1122,bugip,,544962,,,Devoicing,274,p,Final,,
252,,DispreferenceFirst,dispreferenceFirst,-1.0298661174047374,,,,,971,degop,,546131,,,Devoicing,275,p,Final,,
253,,DispreferenceFirst,dispreferenceFirst,-0.5521811154058531,,,,,1811,pigebe,,548141,,,Voicing,276,b,NonFinal,,
254,,DispreferenceFirst,dispreferenceFirst,-0.916590284142988,,,,,1091,dokup,,549411,,,Devoicing,277,p,Final,,
255,,DispreferenceFirst,dispreferenceFirst,-1.0582010582010581,,,,,945,tekup,,550550,,,Devoicing,278,p,Final,,
256,,DispreferenceFirst,dispreferenceFirst,-0.4526935264825713,,,,,2209,todibe,,552900,,,Voicing,279,b,NonFinal,,
257,,DispreferenceFirst,dispreferenceFirst,-0.8554319931565441,,,,,1169,tekube,,554260,,,Voicing,280,b,NonFinal,,
258,,DispreferenceFirst,dispreferenceFirst,-0.8787346221441125,,,,,1138,bidobe,,555610,,,Voicing,281,b,NonFinal,,
259,,DispreferenceFirst,dispreferenceFirst,-0.8453085376162299,,,,,1183,degobe,,556989,,,Voicing,282,b,NonFinal,,
260,,DispreferenceFirst,dispreferenceFirst,-0.8880994671403197,,,,,1126,pidobe,,558319,,,Voicing,283,b,NonFinal,,
261,,DispreferenceFirst,dispreferenceFirst,-0.9433962264150944,,,,,1060,dikebe,,559639,,,Voicing,284,b,NonFinal,,
262,,DispreferenceFirst,dispreferenceFirst,-1.1198208286674132,,,,,893,bogep,,560839,,,Devoicing,285,p,Final,,
263,,DispreferenceFirst,dispreferenceFirst,-1.095290251916758,,,,,913,potip,,561928,,,Devoicing,286,p,Final,,
264,,DispreferenceFirst,dispreferenceFirst,-0.4144218814753419,,,,,2413, ,,563428,,,Devoicing,287,,NonFinal,,
265,,DispreferenceFirst,dispreferenceFirst,-0.7818608287724785,,,,,1279,bikup,,564888,,,Devoicing,288,p,Final,,
266,,DispreferenceFirst,dispreferenceFirst,-0.8136696501220505,,,,,1229,degobe,,566278,,,Voicing,289,b,NonFinal,,
267,,DispreferenceFirst,dispreferenceFirst,-1.0493179433368311,,,,,953,pidobe,,567427,,,Voicing,290,b,NonFinal,,
268,,DispreferenceFirst,dispreferenceFirst,-1.0362694300518134,,,,,965,gotep,,568827,,,Devoicing,291,p,Final,,
269,,DispreferenceFirst,dispreferenceFirst,-0.966183574879227,,,,,1035,dogip,,570037,,,Devoicing,292,p,Final,,
270,,DispreferenceFirst,dispreferenceFirst,-0.9727626459143969,,,,,1028,degop,,571217,,,Devoicing,293,p,Final,,
271,,DispreferenceFirst,dispreferenceFirst,-0.8149959250203749,,,,,1227,todibe,,572606,,,Voicing,294,b,NonFinal,,
272,,DispreferenceFirst,dispreferenceFirst,-0.6476683937823834,,,,,1544,pigep,,574306,,,Devoicing,295,p,Final,,
273,,DispreferenceFirst,dispreferenceFirst,-0.5313496280552603,,,,,1882,bidobe,,576386,,,Voicing,296,b,NonFinal,,
274,,DispreferenceFirst,dispreferenceFirst,-0.594883997620464,,,,,1681,bogep,,578305,,,Devoicing,297,p,Final,,
275,,DispreferenceFirst,dispreferenceFirst,-0.7440476190476191,,,,,1344,bidop,,579865,,,Devoicing,298,p,Final,,
276,,DispreferenceFirst,dispreferenceFirst,-1.037344398340249,,,,,964,pidop,,580985,,,Devoicing,299,p,Final,,
277,,DispreferenceFirst,dispreferenceFirst,-1.002004008016032,,,,,998,dikep,,582135,,,Devoicing,300,p,Final,,
278,,DispreferenceFirst,dispreferenceFirst,-0.5467468562055768,,,,,1829,dikebe,,584134,,,Voicing,301,b,NonFinal,,
279,,DispreferenceFirst,dispreferenceFirst,-0.8547008547008547,,,,,1170,bugibe,,585444,,,Voicing,302,b,NonFinal,,
280,,DispreferenceFirst,dispreferenceFirst,-0.7501875468867217,,,,,1333,todube,,587024,,,Voicing,303,b,NonFinal,,
281,,DispreferenceFirst,dispreferenceFirst,-0.6406149903907752,,,,,1561,potip,,588784,,,Devoicing,304,p,Final,,
282,,DispreferenceFirst,dispreferenceFirst,-1.1111111111111112,,,,,900,gutop,,589863,,,Devoicing,305,p,Final,,
283,,DispreferenceFirst,dispreferenceFirst,-0.9066183136899365,,,,,1103,todup,,591133,,,Devoicing,306,p,Final,,
284,,DispreferenceFirst,dispreferenceFirst,-0.8680555555555556,,,,,1152,tekube,,592493,,,Voicing,307,b,NonFinal,,
285,,DispreferenceFirst,dispreferenceFirst,-0.9569377990430622,,,,,1045,dokup,,593762,,,Devoicing,308,p,Final,,
286,,DispreferenceFirst,dispreferenceFirst,-0.9541984732824428,,,,,1048,bugip,,594962,,,Devoicing,309,p,Final,,
287,,DispreferenceFirst,dispreferenceFirst,-0.7581501137225171,,,,,1319,dokube,,596442,,,Voicing,310,b,NonFinal,,
288,,DispreferenceFirst,dispreferenceFirst,-0.8787346221441125,,,,,1138,gutobe,,597732,,,Voicing,311,b,NonFinal,,
289,,DispreferenceFirst,dispreferenceFirst,-0.8496176720475785,,,,,1177,dogibe,,599081,,,Voicing,312,b,NonFinal,,
290,,DispreferenceFirst,dispreferenceFirst,-0.8984725965858041,,,,,1113,bikube,,600391,,,Voicing,313,b,NonFinal,,
291,,DispreferenceFirst,dispreferenceFirst,-0.8904719501335708,,,,,1123,pigebe,,601781,,,Voicing,314,b,NonFinal,,
292,,DispreferenceFirst,dispreferenceFirst,-0.9852216748768473,,,,,1015,bogebe,,602971,,,Voicing,315,b,NonFinal,,
293,,DispreferenceFirst,dispreferenceFirst,-0.9813542688910697,,,,,1019,todip,,604221,,,Devoicing,316,p,Final,,
294,,DispreferenceFirst,dispreferenceFirst,-0.6191950464396285,,,,,1615,gotebe,,605980,,,Voicing,317,b,NonFinal,,
295,,DispreferenceFirst,dispreferenceFirst,-0.8857395925597874,,,,,1129,potibe,,607260,,,Voicing,318,b,NonFinal,,
296,,DispreferenceFirst,dispreferenceFirst,-0.9216589861751152,,,,,1085,tekup,,608550,,,Devoicing,319,p,Final,,
297,,DispreferenceFirst,dispreferenceFirst,-0.39447731755424065,,,,,2535, ,,610000,,,Devoicing,320,,NonFinal,,
298,,DispreferenceFirst,dispreferenceFirst,-1.0638297872340425,,,,,940,dokup,,611119,,,Devoicing,321,p,Final,,
299,,DispreferenceFirst,dispreferenceFirst,-0.8375209380234506,,,,,1194,todibe,,612459,,,Voicing,322,b,NonFinal,,
300,,DispreferenceFirst,dispreferenceFirst,-0.9871668311944719,,,,,1013,degop,,613649,,,Devoicing,323,p,Final,,
301,,DispreferenceFirst,dispreferenceFirst,-0.8438818565400844,,,,,1185,degobe,,614989,,,Voicing,324,b,NonFinal,,
302,,DispreferenceFirst,dispreferenceFirst,-0.9442870632672332,,,,,1059,bogebe,,616208,,,Voicing,325,b,NonFinal,,
303,,DispreferenceFirst,dispreferenceFirst,-1.050420168067227,,,,,952,pigebe,,617348,,,Voicing,326,b,NonFinal,,
304,,DispreferenceFirst,dispreferenceFirst,-1.1123470522803114,,,,,899,todup,,618588,,,Devoicing,327,p,Final,,
305,,DispreferenceFirst,dispreferenceFirst,-0.8787346221441125,,,,,1138,tekube,,619888,,,Voicing,328,b,NonFinal,,
306,,DispreferenceFirst,dispreferenceFirst,-1.0362694300518134,,,,,965,potip,,621087,,,Devoicing,329,p,Final,,
307,,DispreferenceFirst,dispreferenceFirst,-0.7457121551081283,,,,,1341,dokube,,622587,,,Voicing,330,b,NonFinal,,
308,,DispreferenceFirst,dispreferenceFirst,-0.7727975270479135,,,,,1294,bikube,,624047,,,Voicing,331,b,NonFinal,,
309,,DispreferenceFirst,dispreferenceFirst,-0.8613264427217916,,,,,1161,pigep,,625357,,,Devoicing,332,p,Final,,
310,,DispreferenceFirst,dispreferenceFirst,-0.9950248756218906,,,,,1005,bogep,,626567,,,Devoicing,333,p,Final,,
311,,DispreferenceFirst,dispreferenceFirst,-0.7524454477050414,,,,,1329,dikebe,,628056,,,Voicing,334,b,NonFinal,,
312,,DispreferenceFirst,dispreferenceFirst,-0.8431703204047217,,,,,1186,tekup,,629396,,,Devoicing,335,p,Final,,
313,,DispreferenceFirst,dispreferenceFirst,-0.7593014426727411,,,,,1317,bugibe,,630906,,,Voicing,336,b,NonFinal,,
314,,DispreferenceFirst,dispreferenceFirst,-0.9319664492078286,,,,,1073,todube,,632165,,,Voicing,337,b,NonFinal,,
315,,DispreferenceFirst,dispreferenceFirst,-0.9140767824497258,,,,,1094,gutop,,633575,,,Devoicing,338,p,Final,,
316,,DispreferenceFirst,dispreferenceFirst,-1.1037527593818985,,,,,906,bidop,,634635,,,Devoicing,339,p,Final,,
317,,DispreferenceFirst,dispreferenceFirst,-1.0582010582010581,,,,,945,dogip,,635755,,,Devoicing,340,p,Final,,
318,,DispreferenceFirst,dispreferenceFirst,-0.8561643835616438,,,,,1168,gutobe,,637115,,,Voicing,341,b,NonFinal,,
319,,DispreferenceFirst,dispreferenceFirst,-0.7027406886858749,,,,,1423,pidobe,,638694,,,Voicing,342,b,NonFinal,,
320,,DispreferenceFirst,dispreferenceFirst,-0.9689922480620154,,,,,1032,bugip,,639874,,,Devoicing,343,p,Final,,
321,,DispreferenceFirst,dispreferenceFirst,-1.027749229188078,,,,,973,todip,,641004,,,Devoicing,344,p,Final,,
322,,DispreferenceFirst,dispreferenceFirst,-0.9285051067780873,,,,,1077,potibe,,642274,,,Voicing,345,b,NonFinal,,
323,,DispreferenceFirst,dispreferenceFirst,-0.9442870632672332,,,,,1059,bidobe,,643593,,,Voicing,346,b,NonFinal,,
324,,DispreferenceFirst,dispreferenceFirst,-0.9389671361502347,,,,,1065,gotebe,,644933,,,Voicing,347,b,NonFinal,,
325,,DispreferenceFirst,dispreferenceFirst,-0.7993605115907274,,,,,1251,dogibe,,646423,,,Voicing,348,b,NonFinal,,
326,,DispreferenceFirst,dispreferenceFirst,-0.8818342151675485,,,,,1134,gotep,,647753,,,Devoicing,349,p,Final,,
327,,DispreferenceFirst,dispreferenceFirst,-0.922509225092251,,,,,1084,pidop,,648982,,,Devoicing,350,p,Final,,
328,,DispreferenceFirst,dispreferenceFirst,-0.9587727708533078,,,,,1043,dikep,,650192,,,Devoicing,351,p,Final,,
329,,DispreferenceFirst,dispreferenceFirst,-1.0080645161290323,,,,,992,bikup,,651342,,,Devoicing,352,p,Final,,
330,,DispreferenceFirst,dispreferenceFirst,-0.20571898786257972,,,,,4861, ,,655211,,,Devoicing,353,,NonFinal,,
331,,DispreferenceFirst,dispreferenceFirst_inverse,-0.5249343832020997,,,,,1905,bumblebee,,80509,,,Voicing,354,b,NonFinal,,
332,,DispreferenceFirst,dispreferenceFirst_inverse,-1.0615711252653928,,,,,942,canopy,,82109,,,Devoicing,355,p,NonFinal,,
333,,DispreferenceFirst,dispreferenceFirst_inverse,-1.2224938875305624,,,,,818,cob,,83568,,,Voicing,356,b,Final,,
334,,DispreferenceFirst,dispreferenceFirst_inverse,-0.9442870632672332,,,,,1059,copy,,85268,,,Devoicing,357,p,NonFinal,,
335,,DispreferenceFirst,dispreferenceFirst_inverse,-1.1185682326621924,,,,,894,crab,,86808,,,Voicing,358,b,Final,,
336,,DispreferenceFirst,dispreferenceFirst_inverse,-1.0526315789473684,,,,,950,crimp,,88358,,,Devoicing,359,p,Final,,
337,,DispreferenceFirst,dispreferenceFirst_inverse,-1.0582010582010581,,,,,945,flop,,89907,,,Devoicing,360,p,Final,,
338,,DispreferenceFirst,dispreferenceFirst_inverse,-0.9950248756218906,,,,,1005,grab,,91537,,,Voicing,361,b,Final,,
339,,DispreferenceFirst,dispreferenceFirst_inverse,-0.8591065292096219,,,,,1164,grub,,93316,,,Voicing,362,b,Final,,
340,,DispreferenceFirst,dispreferenceFirst_inverse,-1.2919896640826873,,,,,774,hippie,,94746,,,Devoicing,363,p,NonFinal,,
341,,DispreferenceFirst,dispreferenceFirst_inverse,-0.7117437722419929,,,,,1405,lobe,,96756,,,Voicing,364,b,NonFinal,,
342,,DispreferenceFirst,dispreferenceFirst_inverse,-1.0351966873706004,,,,,966,maybe,,98346,,,Voicing,365,b,NonFinal,,
343,,DispreferenceFirst,dispreferenceFirst_inverse,-0.7874015748031497,,,,,1270,placebo,,100235,,,Voicing,366,b,NonFinal,,
344,,DispreferenceFirst,dispreferenceFirst_inverse,-0.46490004649000466,,,,,2151,pope,,102985,,,Devoicing,367,p,NonFinal,,
345,,DispreferenceFirst,dispreferenceFirst_inverse,-0.9033423667570009,,,,,1107,ripe,,104765,,,Devoicing,368,p,NonFinal,,
346,,DispreferenceFirst,dispreferenceFirst_inverse,-0.9115770282588879,,,,,1097,scuba,,106524,,,Voicing,369,b,NonFinal,,
347,,DispreferenceFirst,dispreferenceFirst_inverse,-0.746268656716418,,,,,1340,shape,,108484,,,Devoicing,370,p,NonFinal,,
348,,DispreferenceFirst,dispreferenceFirst_inverse,-1.0493179433368311,,,,,953,toupee,,110063,,,Devoicing,371,p,NonFinal,,
349,,DispreferenceFirst,dispreferenceFirst_inverse,-1.2578616352201257,,,,,795,typo,,111473,,,Devoicing,372,p,NonFinal,,
350,,DispreferenceFirst,dispreferenceFirst_inverse,-0.9596928982725528,,,,,1042,wallaby,,113153,,,Voicing,373,b,NonFinal,,
351,,DispreferenceFirst,dispreferenceFirst_inverse,-0.5192107995846313,,,,,1926,degob,,119912,,,Voicing,374,b,Final,,
352,,DispreferenceFirst,dispreferenceFirst_inverse,-0.6693440428380187,,,,,1494,potipe,,121571,,,Devoicing,375,p,NonFinal,,
353,,DispreferenceFirst,dispreferenceFirst_inverse,-0.5988023952095808,,,,,1670,todupe,,123391,,,Devoicing,376,p,NonFinal,,
354,,DispreferenceFirst,dispreferenceFirst_inverse,-0.6031363088057901,,,,,1658,gotepe,,125211,,,Devoicing,377,p,NonFinal,,
355,,DispreferenceFirst,dispreferenceFirst_inverse,-0.5027652086475616,,,,,1989,bikupe,,127360,,,Devoicing,378,p,NonFinal,,
356,,DispreferenceFirst,dispreferenceFirst_inverse,-0.7558578987150416,,,,,1323,pigepe,,128900,,,Devoicing,379,p,NonFinal,,
357,,DispreferenceFirst,dispreferenceFirst_inverse,-0.4859086491739553,,,,,2058,bugib,,131130,,,Voicing,380,b,Final,,
358,,DispreferenceFirst,dispreferenceFirst_inverse,-0.6493506493506493,,,,,1540,bogepe,,132839,,,Devoicing,381,p,NonFinal,,
359,,DispreferenceFirst,dispreferenceFirst_inverse,-0.7082152974504249,,,,,1412,tekupe,,134419,,,Devoicing,382,p,NonFinal,,
360,,DispreferenceFirst,dispreferenceFirst_inverse,-0.8077544426494345,,,,,1238,tekub,,135869,,,Voicing,383,b,Final,,
361,,DispreferenceFirst,dispreferenceFirst_inverse,-0.8257638315441783,,,,,1211,bikub,,137278,,,Voicing,384,b,Final,,
362,,DispreferenceFirst,dispreferenceFirst_inverse,-0.9487666034155597,,,,,1054,bidob,,138478,,,Voicing,385,b,Final,,
363,,DispreferenceFirst,dispreferenceFirst_inverse,-0.7581501137225171,,,,,1319,degope,,139948,,,Devoicing,386,p,NonFinal,,
364,,DispreferenceFirst,dispreferenceFirst_inverse,-0.8149959250203749,,,,,1227,gutope,,141328,,,Devoicing,387,p,NonFinal,,
365,,DispreferenceFirst,dispreferenceFirst_inverse,-0.7911392405063291,,,,,1264,dogipe,,142777,,,Devoicing,388,p,NonFinal,,
366,,DispreferenceFirst,dispreferenceFirst_inverse,-0.8496176720475785,,,,,1177,goteb,,144117,,,Voicing,389,b,Final,,
367,,DispreferenceFirst,dispreferenceFirst_inverse,-0.7012622720897616,,,,,1426,dokupe,,145697,,,Devoicing,390,p,NonFinal,,
368,,DispreferenceFirst,dispreferenceFirst_inverse,-0.8525149190110827,,,,,1173,pidob,,147047,,,Voicing,391,b,Final,,
369,,DispreferenceFirst,dispreferenceFirst_inverse,-0.9775171065493646,,,,,1023,gutob,,148237,,,Voicing,392,b,Final,,
370,,DispreferenceFirst,dispreferenceFirst_inverse,-0.5491488193300385,,,,,1821,bugipe,,150206,,,Devoicing,393,p,NonFinal,,
371,,DispreferenceFirst,dispreferenceFirst_inverse,-0.5197505197505198,,,,,1924,dikepe,,152296,,,Devoicing,394,p,NonFinal,,
372,,DispreferenceFirst,dispreferenceFirst_inverse,-0.49776007964161273,,,,,2009,bidope,,154475,,,Devoicing,395,p,NonFinal,,
373,,DispreferenceFirst,dispreferenceFirst_inverse,-0.6215040397762586,,,,,1609,todipe,,156235,,,Devoicing,396,p,NonFinal,,
374,,DispreferenceFirst,dispreferenceFirst_inverse,-0.8756567425569177,,,,,1142,pigeb,,157535,,,Voicing,397,b,Final,,
375,,DispreferenceFirst,dispreferenceFirst_inverse,-0.7518796992481203,,,,,1330,dogib,,159064,,,Voicing,398,b,Final,,
376,,DispreferenceFirst,dispreferenceFirst_inverse,-0.7267441860465116,,,,,1376,dokub,,160604,,,Voicing,399,b,Final,,
377,,DispreferenceFirst,dispreferenceFirst_inverse,-0.384172109104879,,,,,2603,todub,,163414,,,Voicing,400,b,Final,,
378,,DispreferenceFirst,dispreferenceFirst_inverse,-0.5467468562055768,,,,,1829,todib,,165453,,,Voicing,401,b,Final,,
379,,DispreferenceFirst,dispreferenceFirst_inverse,-0.778816199376947,,,,,1284,dikeb,,166903,,,Voicing,402,b,Final,,
380,,DispreferenceFirst,dispreferenceFirst_inverse,-0.8278145695364238,,,,,1208,potib,,168273,,,Voicing,403,b,Final,,
381,,DispreferenceFirst,dispreferenceFirst_inverse,-0.5012531328320802,,,,,1995,pidope,,170432,,,Devoicing,404,p,NonFinal,,
382,,DispreferenceFirst,dispreferenceFirst_inverse,-0.8936550491510277,,,,,1119,bogeb,,171712,,,Voicing,405,b,Final,,
383,,DispreferenceFirst,dispreferenceFirst_inverse,-0.08675284115554785,,,,,11527, ,,182120,,,Devoicing,406,,NonFinal,,
384,,DispreferenceFirst,dispreferenceFirst_inverse,-0.5824111822947,,,,,1717,todupe,,184110,,,Devoicing,407,p,NonFinal,,
385,,DispreferenceFirst,dispreferenceFirst_inverse,-0.6958942240779401,,,,,1437,dikepe,,185709,,,Devoicing,408,p,NonFinal,,
386,,DispreferenceFirst,dispreferenceFirst_inverse,-1.001001001001001,,,,,999,todib,,186859,,,Voicing,409,b,Final,,
387,,DispreferenceFirst,dispreferenceFirst_inverse,-0.6373486297004461,,,,,1569,degope,,188579,,,Devoicing,410,p,NonFinal,,
388,,DispreferenceFirst,dispreferenceFirst_inverse,-1.0131712259371835,,,,,987,gutob,,189719,,,Voicing,411,b,Final,,
389,,DispreferenceFirst,dispreferenceFirst_inverse,-0.5141388174807198,,,,,1945,dogib,,191818,,,Voicing,412,b,Final,,
390,,DispreferenceFirst,dispreferenceFirst_inverse,-0.7002801120448179,,,,,1428,goteb,,193408,,,Voicing,413,b,Final,,
391,,DispreferenceFirst,dispreferenceFirst_inverse,-0.9328358208955224,,,,,1072,degob,,194668,,,Voicing,414,b,Final,,
392,,DispreferenceFirst,dispreferenceFirst_inverse,-0.7342143906020558,,,,,1362,pidope,,196177,,,Devoicing,415,p,NonFinal,,
393,,DispreferenceFirst,dispreferenceFirst_inverse,-0.6788866259334692,,,,,1473,bikupe,,197817,,,Devoicing,416,p,NonFinal,,
394,,DispreferenceFirst,dispreferenceFirst_inverse,-0.6944444444444444,,,,,1440,potib,,199427,,,Voicing,417,b,Final,,
395,,DispreferenceFirst,dispreferenceFirst_inverse,-0.8826125330979699,,,,,1133,bogeb,,200727,,,Voicing,418,b,Final,,
396,,DispreferenceFirst,dispreferenceFirst_inverse,-0.949667616334283,,,,,1053,dokub,,201947,,,Voicing,419,b,Final,,
397,,DispreferenceFirst,dispreferenceFirst_inverse,-0.7407407407407407,,,,,1350,bogepe,,203466,,,Devoicing,420,p,NonFinal,,
398,,DispreferenceFirst,dispreferenceFirst_inverse,-0.7733952049497294,,,,,1293,bugib,,204956,,,Voicing,421,b,Final,,
399,,DispreferenceFirst,dispreferenceFirst_inverse,-0.6218905472636815,,,,,1608,bugipe,,206716,,,Devoicing,422,p,NonFinal,,
400,,DispreferenceFirst,dispreferenceFirst_inverse,-0.9578544061302682,,,,,1044,todub,,207965,,,Voicing,423,b,Final,,
401,,DispreferenceFirst,dispreferenceFirst_inverse,-0.6729475100942126,,,,,1486,bikub,,209615,,,Voicing,424,b,Final,,
402,,DispreferenceFirst,dispreferenceFirst_inverse,-0.7199424046076314,,,,,1389,todipe,,211165,,,Devoicing,425,p,NonFinal,,
403,,DispreferenceFirst,dispreferenceFirst_inverse,-0.5534034311012729,,,,,1807,gutope,,213124,,,Devoicing,426,p,NonFinal,,
404,,DispreferenceFirst,dispreferenceFirst_inverse,-0.8361204013377926,,,,,1196,pigepe,,214514,,,Devoicing,427,p,NonFinal,,
405,,DispreferenceFirst,dispreferenceFirst_inverse,-1.0615711252653928,,,,,942,bidob,,215654,,,Voicing,428,b,Final,,
406,,DispreferenceFirst,dispreferenceFirst_inverse,-0.9354536950420954,,,,,1069,pigeb,,216904,,,Voicing,429,b,Final,,
407,,DispreferenceFirst,dispreferenceFirst_inverse,-0.6540222367560498,,,,,1529,tekub,,218623,,,Voicing,430,b,Final,,
408,,DispreferenceFirst,dispreferenceFirst_inverse,-0.6112469437652812,,,,,1636,dokupe,,220403,,,Devoicing,431,p,NonFinal,,
409,,DispreferenceFirst,dispreferenceFirst_inverse,-0.7739938080495357,,,,,1292,bidope,,221843,,,Devoicing,432,p,NonFinal,,
410,,DispreferenceFirst,dispreferenceFirst_inverse,-0.7246376811594203,,,,,1380,dikeb,,223373,,,Voicing,433,b,Final,,
411,,DispreferenceFirst,dispreferenceFirst_inverse,-0.7751937984496124,,,,,1290,dogipe,,224862,,,Devoicing,434,p,NonFinal,,
412,,DispreferenceFirst,dispreferenceFirst_inverse,-0.9746588693957114,,,,,1026,pidob,,226052,,,Voicing,435,b,Final,,
413,,DispreferenceFirst,dispreferenceFirst_inverse,-0.7092198581560284,,,,,1410,tekupe,,227622,,,Devoicing,436,p,NonFinal,,
414,,DispreferenceFirst,dispreferenceFirst_inverse,-0.6027727546714888,,,,,1659,potipe,,229481,,,Devoicing,437,p,NonFinal,,
415,,DispreferenceFirst,dispreferenceFirst_inverse,-0.6954102920723226,,,,,1438,gotepe,,231071,,,Devoicing,438,p,NonFinal,,
416,,DispreferenceFirst,dispreferenceFirst_inverse,-0.12941633234114144,,,,,7727, ,,237360,,,Devoicing,439,,NonFinal,,
417,,DispreferenceFirst,dispreferenceFirst_inverse,-0.7604562737642585,,,,,1315,dokub,,238910,,,Voicing,440,b,Final,,
418,,DispreferenceFirst,dispreferenceFirst_inverse,-0.5564830272676683,,,,,1797,degob,,240850,,,Voicing,441,b,Final,,
419,,DispreferenceFirst,dispreferenceFirst_inverse,-0.9737098344693281,,,,,1027,dikeb,,242069,,,Voicing,442,b,Final,,
420,,DispreferenceFirst,dispreferenceFirst_inverse,-0.7342143906020558,,,,,1362,todipe,,243579,,,Devoicing,443,p,NonFinal,,
421,,DispreferenceFirst,dispreferenceFirst_inverse,-0.8818342151675485,,,,,1134,todib,,244868,,,Voicing,444,b,Final,,
422,,DispreferenceFirst,dispreferenceFirst_inverse,-0.9363295880149812,,,,,1068,gutob,,246148,,,Voicing,445,b,Final,,
423,,DispreferenceFirst,dispreferenceFirst_inverse,-0.7385524372230429,,,,,1354,potipe,,247678,,,Devoicing,446,p,NonFinal,,
424,,DispreferenceFirst,dispreferenceFirst_inverse,-0.8968609865470852,,,,,1115,goteb,,248948,,,Voicing,447,b,Final,,
425,,DispreferenceFirst,dispreferenceFirst_inverse,-0.7163323782234957,,,,,1396,bugipe,,250497,,,Devoicing,448,p,NonFinal,,
426,,DispreferenceFirst,dispreferenceFirst_inverse,-0.6345177664974619,,,,,1576,todupe,,252227,,,Devoicing,449,p,NonFinal,,
427,,DispreferenceFirst,dispreferenceFirst_inverse,-0.6622516556291391,,,,,1510,bikupe,,253887,,,Devoicing,450,p,NonFinal,,
428,,DispreferenceFirst,dispreferenceFirst_inverse,-0.6373486297004461,,,,,1569,bogepe,,255607,,,Devoicing,451,p,NonFinal,,
429,,DispreferenceFirst,dispreferenceFirst_inverse,-0.8488964346349746,,,,,1178,bogeb,,256936,,,Voicing,452,b,Final,,
430,,DispreferenceFirst,dispreferenceFirst_inverse,-0.7057163020465773,,,,,1417,pidope,,258506,,,Devoicing,453,p,NonFinal,,
431,,DispreferenceFirst,dispreferenceFirst_inverse,-0.6993006993006993,,,,,1430,tekupe,,260096,,,Devoicing,454,p,NonFinal,,
432,,DispreferenceFirst,dispreferenceFirst_inverse,-0.7256894049346879,,,,,1378,todub,,261625,,,Voicing,455,b,Final,,
433,,DispreferenceFirst,dispreferenceFirst_inverse,-0.8503401360544217,,,,,1176,bikub,,262955,,,Voicing,456,b,Final,,
434,,DispreferenceFirst,dispreferenceFirst_inverse,-0.697350069735007,,,,,1434,dogib,,264545,,,Voicing,457,b,Final,,
435,,DispreferenceFirst,dispreferenceFirst_inverse,-0.5219206680584552,,,,,1916,potib,,266614,,,Voicing,458,b,Final,,
436,,DispreferenceFirst,dispreferenceFirst_inverse,-0.6720430107526881,,,,,1488,dogipe,,268254,,,Devoicing,459,p,NonFinal,,
437,,DispreferenceFirst,dispreferenceFirst_inverse,-0.7256894049346879,,,,,1378,dokupe,,269784,,,Devoicing,460,p,NonFinal,,
438,,DispreferenceFirst,dispreferenceFirst_inverse,-0.7002801120448179,,,,,1428,degope,,271373,,,Devoicing,461,p,NonFinal,,
439,,DispreferenceFirst,dispreferenceFirst_inverse,-0.5367686527106817,,,,,1863,gotepe,,273393,,,Devoicing,462,p,NonFinal,,
440,,DispreferenceFirst,dispreferenceFirst_inverse,-0.5970149253731343,,,,,1675,gutope,,275233,,,Devoicing,463,p,NonFinal,,
441,,DispreferenceFirst,dispreferenceFirst_inverse,-0.8726003490401396,,,,,1146,tekub,,276542,,,Voicing,464,b,Final,,
442,,DispreferenceFirst,dispreferenceFirst_inverse,-0.7674597083653109,,,,,1303,bidope,,278012,,,Devoicing,465,p,NonFinal,,
443,,DispreferenceFirst,dispreferenceFirst_inverse,-0.6574621959237343,,,,,1521,pidob,,279712,,,Voicing,466,b,Final,,
444,,DispreferenceFirst,dispreferenceFirst_inverse,-0.5238344683080147,,,,,1909,dikepe,,281781,,,Devoicing,467,p,NonFinal,,
445,,DispreferenceFirst,dispreferenceFirst_inverse,-0.5668934240362812,,,,,1764,bugib,,283701,,,Voicing,468,b,Final,,
446,,DispreferenceFirst,dispreferenceFirst_inverse,-1.001001001001001,,,,,999,pigeb,,284851,,,Voicing,469,b,Final,,
447,,DispreferenceFirst,dispreferenceFirst_inverse,-0.639386189258312,,,,,1564,pigepe,,286591,,,Devoicing,470,p,NonFinal,,
448,,DispreferenceFirst,dispreferenceFirst_inverse,-1.0214504596527068,,,,,979,bidob,,287720,,,Voicing,471,b,Final,,
449,,DispreferenceFirst,dispreferenceFirst_inverse,-0.14029180695847362,,,,,7128, ,,293869,,,Devoicing,472,,NonFinal,,
450,,DispreferenceFirst,dispreferenceFirst_inverse,-0.8960573476702509,,,,,1116,dogib,,295229,,,Voicing,473,b,Final,,
451,,DispreferenceFirst,dispreferenceFirst_inverse,-0.8271298593879239,,,,,1209,bugipe,,296589,,,Devoicing,474,p,NonFinal,,
452,,DispreferenceFirst,dispreferenceFirst_inverse,-0.9699321047526673,,,,,1031,pigeb,,297869,,,Voicing,475,b,Final,,
453,,DispreferenceFirst,dispreferenceFirst_inverse,-0.9009009009009009,,,,,1110,goteb,,299128,,,Voicing,476,b,Final,,
454,,DispreferenceFirst,dispreferenceFirst_inverse,-0.9689922480620154,,,,,1032,dokub,,300338,,,Voicing,477,b,Final,,
455,,DispreferenceFirst,dispreferenceFirst_inverse,-0.9319664492078286,,,,,1073,bugib,,301558,,,Voicing,478,b,Final,,
456,,DispreferenceFirst,dispreferenceFirst_inverse,-0.7320644216691069,,,,,1366,bogepe,,303078,,,Devoicing,479,p,NonFinal,,
457,,DispreferenceFirst,dispreferenceFirst_inverse,-0.8210180623973727,,,,,1218,bidob,,304447,,,Voicing,480,b,Final,,
458,,DispreferenceFirst,dispreferenceFirst_inverse,-0.7062146892655368,,,,,1416,tekub,,306017,,,Voicing,481,b,Final,,
459,,DispreferenceFirst,dispreferenceFirst_inverse,-0.929368029739777,,,,,1076,bikub,,307237,,,Voicing,482,b,Final,,
460,,DispreferenceFirst,dispreferenceFirst_inverse,-0.9242144177449169,,,,,1082,todub,,308467,,,Voicing,483,b,Final,,
461,,DispreferenceFirst,dispreferenceFirst_inverse,-0.8453085376162299,,,,,1183,dogipe,,309796,,,Devoicing,484,p,NonFinal,,
462,,DispreferenceFirst,dispreferenceFirst_inverse,-0.916590284142988,,,,,1091,bogeb,,311086,,,Voicing,485,b,Final,,
463,,DispreferenceFirst,dispreferenceFirst_inverse,-0.757002271006813,,,,,1321,todipe,,312556,,,Devoicing,486,p,NonFinal,,
464,,DispreferenceFirst,dispreferenceFirst_inverse,-0.7923930269413629,,,,,1262,dokupe,,313966,,,Devoicing,487,p,NonFinal,,
465,,DispreferenceFirst,dispreferenceFirst_inverse,-0.7002801120448179,,,,,1428,potipe,,315555,,,Devoicing,488,p,NonFinal,,
466,,DispreferenceFirst,dispreferenceFirst_inverse,-0.819672131147541,,,,,1220,bikupe,,316925,,,Devoicing,489,p,NonFinal,,
467,,DispreferenceFirst,dispreferenceFirst_inverse,-0.8431703204047217,,,,,1186,tekupe,,318285,,,Devoicing,490,p,NonFinal,,
468,,DispreferenceFirst,dispreferenceFirst_inverse,-1.0695187165775402,,,,,935,todib,,319425,,,Voicing,491,b,Final,,
469,,DispreferenceFirst,dispreferenceFirst_inverse,-0.8680555555555556,,,,,1152,pigepe,,320724,,,Devoicing,492,p,NonFinal,,
470,,DispreferenceFirst,dispreferenceFirst_inverse,-0.7112375533428165,,,,,1406,bidope,,322374,,,Devoicing,493,p,NonFinal,,
471,,DispreferenceFirst,dispreferenceFirst_inverse,-0.9328358208955224,,,,,1072,dikeb,,323594,,,Voicing,494,b,Final,,
472,,DispreferenceFirst,dispreferenceFirst_inverse,-0.6527415143603134,,,,,1532,pidope,,325274,,,Devoicing,495,p,NonFinal,,
473,,DispreferenceFirst,dispreferenceFirst_inverse,-0.832639467110741,,,,,1201,degope,,326623,,,Devoicing,496,p,NonFinal,,
474,,DispreferenceFirst,dispreferenceFirst_inverse,-0.8019246190858059,,,,,1247,dikepe,,328083,,,Devoicing,497,p,NonFinal,,
475,,DispreferenceFirst,dispreferenceFirst_inverse,-1.0245901639344261,,,,,976,potib,,329213,,,Voicing,498,b,Final,,
476,,DispreferenceFirst,dispreferenceFirst_inverse,-0.8517887563884157,,,,,1174,gotepe,,330533,,,Devoicing,499,p,NonFinal,,
477,,DispreferenceFirst,dispreferenceFirst_inverse,-0.832639467110741,,,,,1201,degob,,331902,,,Voicing,500,b,Final,,
478,,DispreferenceFirst,dispreferenceFirst_inverse,-0.9891196834817013,,,,,1011,gutob,,333062,,,Voicing,501,b,Final,,
479,,DispreferenceFirst,dispreferenceFirst_inverse,-0.8445945945945946,,,,,1184,todupe,,334392,,,Devoicing,502,p,NonFinal,,
480,,DispreferenceFirst,dispreferenceFirst_inverse,-1.0384215991692627,,,,,963,pidob,,335552,,,Voicing,503,b,Final,,
481,,DispreferenceFirst,dispreferenceFirst_inverse,-0.8305647840531561,,,,,1204,gutope,,336901,,,Devoicing,504,p,NonFinal,,
482,,DispreferenceFirst,dispreferenceFirst_inverse,-0.1699524133242692,,,,,5884, ,,341581,,,Devoicing,505,,NonFinal,,
483,,DispreferenceFirst,dispreferenceFirst_inverse,-0.6906077348066298,,,,,1448,todupe,,343260,,,Devoicing,506,p,NonFinal,,
484,,DispreferenceFirst,dispreferenceFirst_inverse,-1.0427528675703859,,,,,959,dokub,,344370,,,Voicing,507,b,Final,,
485,,DispreferenceFirst,dispreferenceFirst_inverse,-1.0405827263267429,,,,,961,pidob,,345480,,,Voicing,508,b,Final,,
486,,DispreferenceFirst,dispreferenceFirst_inverse,-0.8920606601248885,,,,,1121,potib,,346750,,,Voicing,509,b,Final,,
487,,DispreferenceFirst,dispreferenceFirst_inverse,-0.7627765064836003,,,,,1311,dokupe,,348209,,,Devoicing,510,p,NonFinal,,
488,,DispreferenceFirst,dispreferenceFirst_inverse,-0.6157635467980296,,,,,1624,bugipe,,349979,,,Devoicing,511,p,NonFinal,,
489,,DispreferenceFirst,dispreferenceFirst_inverse,-0.970873786407767,,,,,1030,todub,,351159,,,Voicing,512,b,Final,,
490,,DispreferenceFirst,dispreferenceFirst_inverse,-0.8904719501335708,,,,,1123,dogib,,352429,,,Voicing,513,b,Final,,
491,,DispreferenceFirst,dispreferenceFirst_inverse,-0.56657223796034,,,,,1765,bugib,,354348,,,Voicing,514,b,Final,,
492,,DispreferenceFirst,dispreferenceFirst_inverse,-0.651890482398957,,,,,1534,dikepe,,356028,,,Devoicing,515,p,NonFinal,,
493,,DispreferenceFirst,dispreferenceFirst_inverse,-0.44543429844098,,,,,2245,todipe,,358427,,,Devoicing,516,p,NonFinal,,
494,,DispreferenceFirst,dispreferenceFirst_inverse,-0.3380662609871535,,,,,2958,gotepe,,361537,,,Devoicing,517,p,NonFinal,,
495,,DispreferenceFirst,dispreferenceFirst_inverse,-0.6309148264984227,,,,,1585,gutob,,363267,,,Voicing,518,b,Final,,
496,,DispreferenceFirst,dispreferenceFirst_inverse,-0.7178750897343862,,,,,1393,todib,,364806,,,Voicing,519,b,Final,,
497,,DispreferenceFirst,dispreferenceFirst_inverse,-0.6309148264984227,,,,,1585,tekupe,,366536,,,Devoicing,520,p,NonFinal,,
498,,DispreferenceFirst,dispreferenceFirst_inverse,-0.3453038674033149,,,,,2896,degope,,369585,,,Devoicing,521,p,NonFinal,,
499,,DispreferenceFirst,dispreferenceFirst_inverse,-0.6305170239596469,,,,,1586,pidope,,371325,,,Devoicing,522,p,NonFinal,,
500,,DispreferenceFirst,dispreferenceFirst_inverse,-0.7980845969672785,,,,,1253,dogipe,,372755,,,Devoicing,523,p,NonFinal,,
501,,DispreferenceFirst,dispreferenceFirst_inverse,-0.9285051067780873,,,,,1077,goteb,,373984,,,Voicing,524,b,Final,,
502,,DispreferenceFirst,dispreferenceFirst_inverse,-0.56657223796034,,,,,1765,bikub,,375904,,,Voicing,525,b,Final,,
503,,DispreferenceFirst,dispreferenceFirst_inverse,-0.7230657989877078,,,,,1383,gutope,,377444,,,Devoicing,526,p,NonFinal,,
504,,DispreferenceFirst,dispreferenceFirst_inverse,-0.6097560975609756,,,,,1640,pigeb,,379234,,,Voicing,527,b,Final,,
505,,DispreferenceFirst,dispreferenceFirst_inverse,-0.7380073800738007,,,,,1355,bidope,,380733,,,Devoicing,528,p,NonFinal,,
506,,DispreferenceFirst,dispreferenceFirst_inverse,-0.7032348804500703,,,,,1422,bogepe,,382303,,,Devoicing,529,p,NonFinal,,
507,,DispreferenceFirst,dispreferenceFirst_inverse,-0.7704160246533128,,,,,1298,pigepe,,383753,,,Devoicing,530,p,NonFinal,,
508,,DispreferenceFirst,dispreferenceFirst_inverse,-1.0729613733905579,,,,,932,tekub,,384833,,,Voicing,531,b,Final,,
509,,DispreferenceFirst,dispreferenceFirst_inverse,-0.6747638326585695,,,,,1482,bikupe,,386472,,,Devoicing,532,p,NonFinal,,
510,,DispreferenceFirst,dispreferenceFirst_inverse,-1.0615711252653928,,,,,942,dikeb,,387562,,,Voicing,533,b,Final,,
511,,DispreferenceFirst,dispreferenceFirst_inverse,-0.6397952655150352,,,,,1563,degob,,389272,,,Voicing,534,b,Final,,
512,,DispreferenceFirst,dispreferenceFirst_inverse,-0.8960573476702509,,,,,1116,bidob,,390541,,,Voicing,535,b,Final,,
513,,DispreferenceFirst,dispreferenceFirst_inverse,-0.7627765064836003,,,,,1311,potipe,,392001,,,Devoicing,536,p,NonFinal,,
514,,DispreferenceFirst,dispreferenceFirst_inverse,-0.8756567425569177,,,,,1142,bogeb,,393291,,,Voicing,537,b,Final,,
515,,DispreferenceFirst,dispreferenceFirst_inverse,-0.1775883502042266,,,,,5631, ,,397780,,,Devoicing,538,,NonFinal,,
516,,DispreferenceFirst,dispreferenceFirst_inverse,-0.0810307106393323,,,,,12341, ,,465458,,,Devoicing,539,,NonFinal,,
517,,DispreferenceFirst,dispreferenceFirst_inverse,-0.14885382554331647,,,,,6718, ,,517428,,,Devoicing,540,,NonFinal,,
518,,DispreferenceFirst,dispreferenceFirst_inverse,-0.15186028853454822,,,,,6585, ,,567619,,,Devoicing,541,,NonFinal,,
519,,DispreferenceFirst,dispreferenceFirst_inverse,-0.1392369813422445,,,,,7182, ,,622929,,,Devoicing,542,,NonFinal,,
520,,DispreferenceFirst,dispreferenceFirst_inverse,-0.11117287381878821,,,,,8995, ,,675869,,,Devoicing,543,,NonFinal,,
521,,DispreferenceFirst,dispreferenceFirst,-0.07589556769884638,,,,,13176,bugipe,,166950,,,Devoicing,544,p,NonFinal,,
522,,DispreferenceFirst,dispreferenceFirst,-0.25621316935690497,,,,,3903,dokub,,171009,,,Voicing,545,b,Final,,
523,,DispreferenceFirst,dispreferenceFirst,-0.44385264092321347,,,,,2253,tekub,,173419,,,Voicing,546,b,Final,,
524,,DispreferenceFirst,dispreferenceFirst,-0.44385264092321347,,,,,2253,dogib,,175828,,,Voicing,547,b,Final,,
525,,DispreferenceFirst,dispreferenceFirst,-0.397456279809221,,,,,2516,gutob,,178498,,,Voicing,548,b,Final,,
526,,DispreferenceFirst,dispreferenceFirst,-0.5743825387708213,,,,,1741,pidope,,180397,,,Devoicing,549,p,NonFinal,,
527,,DispreferenceFirst,dispreferenceFirst,-0.5966587112171837,,,,,1676,bikub,,182227,,,Voicing,550,b,Final,,
528,,DispreferenceFirst,dispreferenceFirst,-0.5063291139240507,,,,,1975,bugib,,184357,,,Voicing,551,b,Final,,
529,,DispreferenceFirst,dispreferenceFirst,-0.6385696040868455,,,,,1566,gutope,,186076,,,Devoicing,552,p,NonFinal,,
530,,DispreferenceFirst,dispreferenceFirst,-0.6997900629811057,,,,,1429,dokupe,,187666,,,Devoicing,553,p,NonFinal,,
531,,DispreferenceFirst,dispreferenceFirst,-0.8210180623973727,,,,,1218,degob,,189046,,,Voicing,554,b,Final,,
532,,DispreferenceFirst,dispreferenceFirst,-0.7733952049497294,,,,,1293,goteb,,190496,,,Voicing,555,b,Final,,
533,,DispreferenceFirst,dispreferenceFirst,-0.7283321194464676,,,,,1373,bidope,,192025,,,Devoicing,556,p,NonFinal,,
534,,DispreferenceFirst,dispreferenceFirst,-0.727802037845706,,,,,1374,bikupe,,193555,,,Devoicing,557,p,NonFinal,,
535,,DispreferenceFirst,dispreferenceFirst,-0.5941770647653001,,,,,1683,pigeb,,195395,,,Voicing,558,b,Final,,
536,,DispreferenceFirst,dispreferenceFirst,-0.5099439061703213,,,,,1961,potib,,197535,,,Voicing,559,b,Final,,
537,,DispreferenceFirst,dispreferenceFirst,-0.5055611729019212,,,,,1978,dikepe,,199714,,,Devoicing,560,p,NonFinal,,
538,,DispreferenceFirst,dispreferenceFirst,-0.6261740763932373,,,,,1597,todipe,,201464,,,Devoicing,561,p,NonFinal,,
539,,DispreferenceFirst,dispreferenceFirst,-0.7122507122507122,,,,,1404,todib,,203023,,,Voicing,562,b,Final,,
540,,DispreferenceFirst,dispreferenceFirst,-0.7189072609633357,,,,,1391,pigepe,,204583,,,Devoicing,563,p,NonFinal,,
541,,DispreferenceFirst,dispreferenceFirst,-0.6868131868131868,,,,,1456,potipe,,206193,,,Devoicing,564,p,NonFinal,,
542,,DispreferenceFirst,dispreferenceFirst,-0.4357298474945534,,,,,2295,bogepe,,208642,,,Devoicing,565,p,NonFinal,,
543,,DispreferenceFirst,dispreferenceFirst,-0.4142502071251036,,,,,2414,dikeb,,211212,,,Voicing,566,b,Final,,
544,,DispreferenceFirst,dispreferenceFirst,-0.3397893306150187,,,,,2943,bidob,,214352,,,Voicing,567,b,Final,,
545,,DispreferenceFirst,dispreferenceFirst,-0.8210180623973727,,,,,1218,todupe,,215751,,,Devoicing,568,p,NonFinal,,
546,,DispreferenceFirst,dispreferenceFirst,-0.6246096189881324,,,,,1601,bogeb,,217521,,,Voicing,569,b,Final,,
547,,DispreferenceFirst,dispreferenceFirst,-0.382262996941896,,,,,2616,dogipe,,220290,,,Devoicing,570,p,NonFinal,,
548,,DispreferenceFirst,dispreferenceFirst,-0.5411255411255411,,,,,1848,degope,,222301,,,Devoicing,571,p,NonFinal,,
549,,DispreferenceFirst,dispreferenceFirst,-0.7704160246533128,,,,,1298,todub,,223760,,,Voicing,572,b,Final,,
550,,DispreferenceFirst,dispreferenceFirst,-0.48053820278712156,,,,,2081,pidob,,225990,,,Voicing,573,b,Final,,
551,,DispreferenceFirst,dispreferenceFirst,-0.7955449482895783,,,,,1257,tekupe,,227449,,,Devoicing,574,p,NonFinal,,
552,,DispreferenceFirst,dispreferenceFirst,-0.7052186177715092,,,,,1418,gotepe,,229039,,,Devoicing,575,p,NonFinal,,
553,,DispreferenceFirst,dispreferenceFirst,-0.3137747097583935,,,,,3187, ,,230808,,,Devoicing,576,,NonFinal,,
554,,DispreferenceFirst,dispreferenceFirst,-0.4972650422675286,,,,,2011,dikeb,,233098,,,Voicing,577,b,Final,,
555,,DispreferenceFirst,dispreferenceFirst,-0.5485463521667581,,,,,1823,pidob,,235069,,,Voicing,578,b,Final,,
556,,DispreferenceFirst,dispreferenceFirst,-0.4734848484848485,,,,,2112,todub,,237357,,,Voicing,579,b,Final,,
557,,DispreferenceFirst,dispreferenceFirst,-0.8710801393728222,,,,,1148,todupe,,238647,,,Devoicing,580,p,NonFinal,,
558,,DispreferenceFirst,dispreferenceFirst,-0.9372071227741331,,,,,1067,tekupe,,239947,,,Devoicing,581,p,NonFinal,,
559,,DispreferenceFirst,dispreferenceFirst,-0.9302325581395349,,,,,1075,degob,,241347,,,Voicing,582,b,Final,,
560,,DispreferenceFirst,dispreferenceFirst,-0.8688097306689835,,,,,1151,gutob,,242697,,,Voicing,583,b,Final,,
561,,DispreferenceFirst,dispreferenceFirst,-0.7440476190476191,,,,,1344,dogipe,,244196,,,Devoicing,584,p,NonFinal,,
562,,DispreferenceFirst,dispreferenceFirst,-0.831946755407654,,,,,1202,tekub,,245546,,,Voicing,585,b,Final,,
563,,DispreferenceFirst,dispreferenceFirst,-0.8382229673093042,,,,,1193,potib,,246896,,,Voicing,586,b,Final,,
564,,DispreferenceFirst,dispreferenceFirst,-0.4180602006688963,,,,,2392,bikupe,,249446,,,Devoicing,587,p,NonFinal,,
565,,DispreferenceFirst,dispreferenceFirst,-0.7898894154818326,,,,,1266,bugib,,250905,,,Voicing,588,b,Final,,
566,,DispreferenceFirst,dispreferenceFirst,-0.8795074758135444,,,,,1137,bidope,,252215,,,Devoicing,589,p,NonFinal,,
567,,DispreferenceFirst,dispreferenceFirst,-0.9199632014719411,,,,,1087,bugipe,,253534,,,Devoicing,590,p,NonFinal,,
568,,DispreferenceFirst,dispreferenceFirst,-0.8077544426494345,,,,,1238,dikepe,,255104,,,Devoicing,591,p,NonFinal,,
569,,DispreferenceFirst,dispreferenceFirst,-0.9523809523809523,,,,,1050,todib,,256304,,,Voicing,592,b,Final,,
570,,DispreferenceFirst,dispreferenceFirst,-0.8361204013377926,,,,,1196,pigeb,,257654,,,Voicing,593,b,Final,,
571,,DispreferenceFirst,dispreferenceFirst,-0.7267441860465116,,,,,1376,potipe,,259183,,,Devoicing,594,p,NonFinal,,
572,,DispreferenceFirst,dispreferenceFirst,-0.7194244604316546,,,,,1390,pigepe,,260733,,,Devoicing,595,p,NonFinal,,
573,,DispreferenceFirst,dispreferenceFirst,-0.693000693000693,,,,,1443,dokub,,262323,,,Voicing,596,b,Final,,
574,,DispreferenceFirst,dispreferenceFirst,-0.4780114722753346,,,,,2092,degope,,264562,,,Devoicing,597,p,NonFinal,,
575,,DispreferenceFirst,dispreferenceFirst,-0.7662835249042146,,,,,1305,dokupe,,266012,,,Devoicing,598,p,NonFinal,,
576,,DispreferenceFirst,dispreferenceFirst,-0.5899705014749262,,,,,1695,gutope,,267852,,,Devoicing,599,p,NonFinal,,
577,,DispreferenceFirst,dispreferenceFirst,-0.8726003490401396,,,,,1146,bogeb,,269141,,,Voicing,600,b,Final,,
578,,DispreferenceFirst,dispreferenceFirst,-0.514668039114771,,,,,1943,bikub,,271231,,,Voicing,601,b,Final,,
579,,DispreferenceFirst,dispreferenceFirst,-0.7776049766718507,,,,,1286,todipe,,272661,,,Devoicing,602,p,NonFinal,,
580,,DispreferenceFirst,dispreferenceFirst,-0.7293946024799417,,,,,1371,pidope,,274231,,,Devoicing,603,p,NonFinal,,
581,,DispreferenceFirst,dispreferenceFirst,-0.8771929824561403,,,,,1140,dogib,,275520,,,Voicing,604,b,Final,,
582,,DispreferenceFirst,dispreferenceFirst,-0.8090614886731392,,,,,1236,bidob,,276920,,,Voicing,605,b,Final,,
583,,DispreferenceFirst,dispreferenceFirst,-0.8688097306689835,,,,,1151,goteb,,278220,,,Voicing,606,b,Final,,
584,,DispreferenceFirst,dispreferenceFirst,-0.6257822277847309,,,,,1598,bogepe,,279970,,,Devoicing,607,p,NonFinal,,
585,,DispreferenceFirst,dispreferenceFirst,-0.700770847932726,,,,,1427,gotepe,,281599,,,Devoicing,608,p,NonFinal,,
586,,DispreferenceFirst,dispreferenceFirst,-0.3835826620636747,,,,,2607, ,,282779,,,Devoicing,609,,NonFinal,,
587,,DispreferenceFirst,dispreferenceFirst,-0.4004805766920304,,,,,2497,dikepe,,285498,,,Devoicing,610,p,NonFinal,,
588,,DispreferenceFirst,dispreferenceFirst,-0.9319664492078286,,,,,1073,pigepe,,286768,,,Devoicing,611,p,NonFinal,,
589,,DispreferenceFirst,dispreferenceFirst,-0.7874015748031497,,,,,1270,gutope,,288358,,,Devoicing,612,p,NonFinal,,
590,,DispreferenceFirst,dispreferenceFirst,-0.5194805194805194,,,,,1925,degope,,290478,,,Devoicing,613,p,NonFinal,,
591,,DispreferenceFirst,dispreferenceFirst,-0.7199424046076314,,,,,1389,todipe,,292057,,,Devoicing,614,p,NonFinal,,
592,,DispreferenceFirst,dispreferenceFirst,-1.0245901639344261,,,,,976,bugib,,293187,,,Voicing,615,b,Final,,
593,,DispreferenceFirst,dispreferenceFirst,-0.8163265306122449,,,,,1225,potib,,294577,,,Voicing,616,b,Final,,
594,,DispreferenceFirst,dispreferenceFirst,-0.7861635220125787,,,,,1272,bugipe,,296056,,,Devoicing,617,p,NonFinal,,
595,,DispreferenceFirst,dispreferenceFirst,-0.8525149190110827,,,,,1173,bidob,,297387,,,Voicing,618,b,Final,,
596,,DispreferenceFirst,dispreferenceFirst,-0.819672131147541,,,,,1220,bogepe,,298756,,,Devoicing,619,p,NonFinal,,
597,,DispreferenceFirst,dispreferenceFirst,-0.6978367062107467,,,,,1433,bikub,,300346,,,Voicing,620,b,Final,,
598,,DispreferenceFirst,dispreferenceFirst,-0.7898894154818326,,,,,1266,pidob,,301766,,,Voicing,621,b,Final,,
599,,DispreferenceFirst,dispreferenceFirst,-0.7112375533428165,,,,,1406,todub,,303335,,,Voicing,622,b,Final,,
600,,DispreferenceFirst,dispreferenceFirst,-0.526592943654555,,,,,1899,bogeb,,305385,,,Voicing,623,b,Final,,
601,,DispreferenceFirst,dispreferenceFirst,-0.7077140835102619,,,,,1413,degob,,306955,,,Voicing,624,b,Final,,
602,,DispreferenceFirst,dispreferenceFirst,-0.9149130832570905,,,,,1093,pidope,,308214,,,Devoicing,625,p,NonFinal,,
603,,DispreferenceFirst,dispreferenceFirst,-0.6887052341597796,,,,,1452,dokupe,,310004,,,Devoicing,626,p,NonFinal,,
604,,DispreferenceFirst,dispreferenceFirst,-0.6468305304010349,,,,,1546,tekupe,,311704,,,Devoicing,627,p,NonFinal,,
605,,DispreferenceFirst,dispreferenceFirst,-0.38955979742890534,,,,,2567,dogib,,314423,,,Voicing,628,b,Final,,
606,,DispreferenceFirst,dispreferenceFirst,-0.6157635467980296,,,,,1624,bikupe,,316203,,,Devoicing,629,p,NonFinal,,
607,,DispreferenceFirst,dispreferenceFirst,-0.6273525721455459,,,,,1594,gotepe,,317943,,,Devoicing,630,p,NonFinal,,
608,,DispreferenceFirst,dispreferenceFirst,-0.7027406886858749,,,,,1423,bidope,,319512,,,Devoicing,631,p,NonFinal,,
609,,DispreferenceFirst,dispreferenceFirst,-0.9433962264150944,,,,,1060,gutob,,320722,,,Voicing,632,b,Final,,
610,,DispreferenceFirst,dispreferenceFirst,-0.702247191011236,,,,,1424,potipe,,322292,,,Devoicing,633,p,NonFinal,,
611,,DispreferenceFirst,dispreferenceFirst,-0.7686395080707148,,,,,1301,dikeb,,323742,,,Voicing,634,b,Final,,
612,,DispreferenceFirst,dispreferenceFirst,-0.8695652173913043,,,,,1150,todib,,325041,,,Voicing,635,b,Final,,
613,,DispreferenceFirst,dispreferenceFirst,-0.8312551953449709,,,,,1203,dokub,,326401,,,Voicing,636,b,Final,,
614,,DispreferenceFirst,dispreferenceFirst,-0.4982561036372696,,,,,2007,todupe,,328601,,,Devoicing,637,p,NonFinal,,
615,,DispreferenceFirst,dispreferenceFirst,-0.4083299305839118,,,,,2449,pigeb,,331210,,,Voicing,638,b,Final,,
616,,DispreferenceFirst,dispreferenceFirst,-0.9124087591240876,,,,,1096,goteb,,332500,,,Voicing,639,b,Final,,
617,,DispreferenceFirst,dispreferenceFirst,-0.8779631255487269,,,,,1139,dogipe,,333850,,,Devoicing,640,p,NonFinal,,
618,,DispreferenceFirst,dispreferenceFirst,-0.6397952655150352,,,,,1563,tekub,,335659,,,Voicing,641,b,Final,,
619,,DispreferenceFirst,dispreferenceFirst,-0.3566333808844508,,,,,2804, ,,336900,,,Devoicing,642,,NonFinal,,
620,,DispreferenceFirst,dispreferenceFirst,-0.5341880341880342,,,,,1872,gutob,,339039,,,Voicing,643,b,Final,,
621,,DispreferenceFirst,dispreferenceFirst,-0.8368200836820083,,,,,1195,pigepe,,340398,,,Devoicing,644,p,NonFinal,,
622,,DispreferenceFirst,dispreferenceFirst,-0.6045949214026602,,,,,1654,dogipe,,342248,,,Devoicing,645,p,NonFinal,,
623,,DispreferenceFirst,dispreferenceFirst,-0.7961783439490446,,,,,1256,potib,,343678,,,Voicing,646,b,Final,,
624,,DispreferenceFirst,dispreferenceFirst,-0.5973715651135006,,,,,1674,bugipe,,345537,,,Devoicing,647,p,NonFinal,,
625,,DispreferenceFirst,dispreferenceFirst,-0.4314063848144953,,,,,2318,tekupe,,348017,,,Devoicing,648,p,NonFinal,,
626,,DispreferenceFirst,dispreferenceFirst,-0.5473453749315819,,,,,1827,pigeb,,350057,,,Voicing,649,b,Final,,
627,,DispreferenceFirst,dispreferenceFirst,-0.2892681515765114,,,,,3457,bikupe,,353716,,,Devoicing,650,p,NonFinal,,
628,,DispreferenceFirst,dispreferenceFirst,-0.5747126436781609,,,,,1740,bidob,,355666,,,Voicing,651,b,Final,,
629,,DispreferenceFirst,dispreferenceFirst,-0.601684717208183,,,,,1662,todub,,357476,,,Voicing,652,b,Final,,
630,,DispreferenceFirst,dispreferenceFirst,-0.7067137809187279,,,,,1415,pidob,,359056,,,Voicing,653,b,Final,,
631,,DispreferenceFirst,dispreferenceFirst,-0.5530973451327433,,,,,1808,bikub,,361025,,,Voicing,654,b,Final,,
632,,DispreferenceFirst,dispreferenceFirst,-0.5977286312014346,,,,,1673,tekub,,362884,,,Voicing,655,b,Final,,
633,,DispreferenceFirst,dispreferenceFirst,-0.6954102920723226,,,,,1438,todipe,,364504,,,Devoicing,656,p,NonFinal,,
634,,DispreferenceFirst,dispreferenceFirst,-0.5027652086475616,,,,,1989,todupe,,366644,,,Devoicing,657,p,NonFinal,,
635,,DispreferenceFirst,dispreferenceFirst,-1.037344398340249,,,,,964,degob,,367784,,,Voicing,658,b,Final,,
636,,DispreferenceFirst,dispreferenceFirst,-0.8849557522123894,,,,,1130,gutope,,369083,,,Devoicing,659,p,NonFinal,,
637,,DispreferenceFirst,dispreferenceFirst,-0.7905138339920948,,,,,1265,dokupe,,370633,,,Devoicing,660,p,NonFinal,,
638,,DispreferenceFirst,dispreferenceFirst,-1.016260162601626,,,,,984,dogib,,371783,,,Voicing,661,b,Final,,
639,,DispreferenceFirst,dispreferenceFirst,-0.8203445447087777,,,,,1219,goteb,,373152,,,Voicing,662,b,Final,,
640,,DispreferenceFirst,dispreferenceFirst,-0.44228217602830605,,,,,2261,dikeb,,375562,,,Voicing,663,b,Final,,
641,,DispreferenceFirst,dispreferenceFirst,-0.3570153516601214,,,,,2801,bogepe,,378511,,,Devoicing,664,p,NonFinal,,
642,,DispreferenceFirst,dispreferenceFirst,-0.7457121551081283,,,,,1341,pidope,,380001,,,Devoicing,665,p,NonFinal,,
643,,DispreferenceFirst,dispreferenceFirst,-1.0869565217391304,,,,,920,dokub,,381071,,,Voicing,666,b,Final,,
644,,DispreferenceFirst,dispreferenceFirst,-0.8368200836820083,,,,,1195,gotepe,,382413,,,Devoicing,667,p,NonFinal,,
645,,DispreferenceFirst,dispreferenceFirst,-0.8880994671403197,,,,,1126,degope,,383690,,,Devoicing,668,p,NonFinal,,
646,,DispreferenceFirst,dispreferenceFirst,-0.9025270758122743,,,,,1108,potipe,,385090,,,Devoicing,669,p,NonFinal,,
647,,DispreferenceFirst,dispreferenceFirst,-0.8650519031141869,,,,,1156,dikepe,,386560,,,Devoicing,670,p,NonFinal,,
648,,DispreferenceFirst,dispreferenceFirst,-0.9354536950420954,,,,,1069,bugib,,387860,,,Voicing,671,b,Final,,
649,,DispreferenceFirst,dispreferenceFirst,-0.6480881399870383,,,,,1543,todib,,389550,,,Voicing,672,b,Final,,
650,,DispreferenceFirst,dispreferenceFirst,-0.6788866259334692,,,,,1473,bogeb,,391169,,,Voicing,673,b,Final,,
651,,DispreferenceFirst,dispreferenceFirst,-0.7107320540156361,,,,,1407,bidope,,392739,,,Devoicing,674,p,NonFinal,,
652,,DispreferenceFirst,dispreferenceFirst,-0.35880875493362036,,,,,2787, ,,394119,,,Devoicing,675,,NonFinal,,
653,,DispreferenceFirst,dispreferenceFirst,-0.6724949562878278,,,,,1487,dogipe,,395838,,,Devoicing,676,p,NonFinal,,
654,,DispreferenceFirst,dispreferenceFirst,-0.856898029134533,,,,,1167,pigepe,,397158,,,Devoicing,677,p,NonFinal,,
655,,DispreferenceFirst,dispreferenceFirst,-0.9478672985781991,,,,,1055,potib,,398438,,,Voicing,678,b,Final,,
656,,DispreferenceFirst,dispreferenceFirst,-0.6925207756232687,,,,,1444,bugipe,,400028,,,Devoicing,679,p,NonFinal,,
657,,DispreferenceFirst,dispreferenceFirst,-0.7824726134585289,,,,,1278,dikepe,,401457,,,Devoicing,680,p,NonFinal,,
658,,DispreferenceFirst,dispreferenceFirst,-0.8156606851549756,,,,,1226,bikupe,,402837,,,Devoicing,681,p,NonFinal,,
659,,DispreferenceFirst,dispreferenceFirst,-0.8110300081103001,,,,,1233,potipe,,404237,,,Devoicing,682,p,NonFinal,,
660,,DispreferenceFirst,dispreferenceFirst,-0.8833922261484098,,,,,1132,bugib,,405547,,,Voicing,683,b,Final,,
661,,DispreferenceFirst,dispreferenceFirst,-0.7390983000739099,,,,,1353,todib,,407066,,,Voicing,684,b,Final,,
662,,DispreferenceFirst,dispreferenceFirst,-0.33557046979865773,,,,,2980,bogeb,,410196,,,Voicing,685,b,Final,,
663,,DispreferenceFirst,dispreferenceFirst,-0.4568296025582458,,,,,2189,bikub,,412555,,,Voicing,686,b,Final,,
664,,DispreferenceFirst,dispreferenceFirst,-0.38955979742890534,,,,,2567,dogib,,415275,,,Voicing,687,b,Final,,
665,,DispreferenceFirst,dispreferenceFirst,-0.17370158068438424,,,,,5757,pidob,,421224,,,Voicing,688,b,Final,,
666,,DispreferenceFirst,dispreferenceFirst,-0.8748906386701663,,,,,1143,todub,,422593,,,Voicing,689,b,Final,,
667,,DispreferenceFirst,dispreferenceFirst,-0.8695652173913043,,,,,1150,todipe,,423904,,,Devoicing,690,p,NonFinal,,
668,,DispreferenceFirst,dispreferenceFirst,-0.9920634920634921,,,,,1008,gotepe,,425184,,,Devoicing,691,p,NonFinal,,
669,,DispreferenceFirst,dispreferenceFirst,-0.8382229673093042,,,,,1193,dokupe,,426713,,,Devoicing,692,p,NonFinal,,
670,,DispreferenceFirst,dispreferenceFirst,-0.7880220646178093,,,,,1269,bogepe,,428213,,,Devoicing,693,p,NonFinal,,
671,,DispreferenceFirst,dispreferenceFirst,-0.6978367062107467,,,,,1433,degope,,429802,,,Devoicing,694,p,NonFinal,,
672,,DispreferenceFirst,dispreferenceFirst,-0.7062146892655368,,,,,1416,dokub,,431372,,,Voicing,695,b,Final,,
673,,DispreferenceFirst,dispreferenceFirst,-0.5359056806002144,,,,,1866,dikeb,,433392,,,Voicing,696,b,Final,,
674,,DispreferenceFirst,dispreferenceFirst,-0.628140703517588,,,,,1592,tekub,,435181,,,Voicing,697,b,Final,,
675,,DispreferenceFirst,dispreferenceFirst,-0.38138825324180015,,,,,2622,pidope,,437951,,,Devoicing,698,p,NonFinal,,
676,,DispreferenceFirst,dispreferenceFirst,-0.39093041438623927,,,,,2558,gutob,,440670,,,Voicing,699,b,Final,,
677,,DispreferenceFirst,dispreferenceFirst,-1.0893246187363834,,,,,918,degob,,441770,,,Voicing,700,b,Final,,
678,,DispreferenceFirst,dispreferenceFirst,-0.9442870632672332,,,,,1059,todupe,,443010,,,Devoicing,701,p,NonFinal,,
679,,DispreferenceFirst,dispreferenceFirst,-0.5592841163310962,,,,,1788,pigeb,,445119,,,Voicing,702,b,Final,,
680,,DispreferenceFirst,dispreferenceFirst,-0.5643340857787811,,,,,1772,gutope,,447039,,,Devoicing,703,p,NonFinal,,
681,,DispreferenceFirst,dispreferenceFirst,-0.5,,,,,2000,bidope,,449189,,,Devoicing,704,p,NonFinal,,
682,,DispreferenceFirst,dispreferenceFirst,-0.7158196134574087,,,,,1397,tekupe,,450738,,,Devoicing,705,p,NonFinal,,
683,,DispreferenceFirst,dispreferenceFirst,-0.6489292667099286,,,,,1541,bidob,,452478,,,Voicing,706,b,Final,,
684,,DispreferenceFirst,dispreferenceFirst,-0.5091649694501018,,,,,1964,goteb,,454638,,,Voicing,707,b,Final,,
685,,DispreferenceFirst,dispreferenceFirst,-0.3286230693394676,,,,,3043, ,,455717,,,Devoicing,708,,NonFinal,,
686,,DispreferenceFirst,dispreferenceFirst,-0.28826751225136926,,,,,3469,dogip,,459457,,,Devoicing,709,p,Final,,
687,,DispreferenceFirst,dispreferenceFirst,-0.4562043795620438,,,,,2192,bidop,,461848,,,Devoicing,710,p,Final,,
688,,DispreferenceFirst,dispreferenceFirst,-0.2420135527589545,,,,,4132,gotebe,,466187,,,Voicing,711,b,NonFinal,,
689,,DispreferenceFirst,dispreferenceFirst,-0.19293845263360987,,,,,5183,bogep,,471575,,,Devoicing,712,p,Final,,
690,,DispreferenceFirst,dispreferenceFirst,-0.4001600640256102,,,,,2499,dikep,,474264,,,Devoicing,713,p,Final,,
691,,DispreferenceFirst,dispreferenceFirst,-0.28851702250432776,,,,,3466,dogibe,,477884,,,Voicing,714,b,NonFinal,,
692,,DispreferenceFirst,dispreferenceFirst,-0.45248868778280543,,,,,2210,todup,,480293,,,Devoicing,715,p,Final,,
693,,DispreferenceFirst,dispreferenceFirst,-0.6285355122564424,,,,,1591,potibe,,482083,,,Voicing,716,b,NonFinal,,
694,,DispreferenceFirst,dispreferenceFirst,-0.47393364928909953,,,,,2110,potip,,484342,,,Devoicing,717,p,Final,,
695,,DispreferenceFirst,dispreferenceFirst,-0.4095004095004095,,,,,2442,dokube,,486952,,,Voicing,718,b,NonFinal,,
696,,DispreferenceFirst,dispreferenceFirst,-0.24295432458697766,,,,,4116,bugip,,491211,,,Devoicing,719,p,Final,,
697,,DispreferenceFirst,dispreferenceFirst,-0.4716981132075472,,,,,2120,bugibe,,493481,,,Voicing,720,b,NonFinal,,
698,,DispreferenceFirst,dispreferenceFirst,-0.3056234718826406,,,,,3272,tekube,,496910,,,Voicing,721,b,NonFinal,,
699,,DispreferenceFirst,dispreferenceFirst,-0.42140750105351876,,,,,2373,tekup,,499489,,,Devoicing,722,p,Final,,
700,,DispreferenceFirst,dispreferenceFirst,-0.26392187912377935,,,,,3789,pidop,,503429,,,Devoicing,723,p,Final,,
701,,DispreferenceFirst,dispreferenceFirst,-0.5966587112171837,,,,,1676,degobe,,505298,,,Voicing,724,b,NonFinal,,
702,,DispreferenceFirst,dispreferenceFirst,-0.585480093676815,,,,,1708,pidobe,,507179,,,Voicing,725,b,NonFinal,,
703,,DispreferenceFirst,dispreferenceFirst,-0.3107520198881293,,,,,3218,gotep,,510547,,,Devoicing,726,p,Final,,
704,,DispreferenceFirst,dispreferenceFirst,-0.4084967320261438,,,,,2448,degop,,513147,,,Devoicing,727,p,Final,,
705,,DispreferenceFirst,dispreferenceFirst,-0.2732987154960372,,,,,3659,dokup,,516976,,,Devoicing,728,p,Final,,
706,,DispreferenceFirst,dispreferenceFirst,-0.41736227045075125,,,,,2396,pigep,,519556,,,Devoicing,729,p,Final,,
707,,DispreferenceFirst,dispreferenceFirst,-0.47460844803037494,,,,,2107,dikebe,,521865,,,Voicing,730,b,NonFinal,,
708,,DispreferenceFirst,dispreferenceFirst,-0.6203473945409429,,,,,1612,gutobe,,523675,,,Voicing,731,b,NonFinal,,
709,,DispreferenceFirst,dispreferenceFirst,-0.2913752913752914,,,,,3432,bogebe,,527324,,,Voicing,732,b,NonFinal,,
710,,DispreferenceFirst,dispreferenceFirst,-0.34782608695652173,,,,,2875,pigebe,,530354,,,Voicing,733,b,NonFinal,,
711,,DispreferenceFirst,dispreferenceFirst,-0.5614823133071308,,,,,1781,todip,,532323,,,Devoicing,734,p,Final,,
712,,DispreferenceFirst,dispreferenceFirst,-0.4670714619336759,,,,,2141,gutop,,534614,,,Devoicing,735,p,Final,,
713,,DispreferenceFirst,dispreferenceFirst,-0.39603960396039606,,,,,2525,todibe,,537332,,,Voicing,736,b,NonFinal,,
714,,DispreferenceFirst,dispreferenceFirst,-0.5920663114268798,,,,,1689,bikube,,539182,,,Voicing,737,b,NonFinal,,
715,,DispreferenceFirst,dispreferenceFirst,-0.6447453255963894,,,,,1551,bidobe,,540882,,,Voicing,738,b,NonFinal,,
716,,DispreferenceFirst,dispreferenceFirst,-0.6653359946773121,,,,,1503,todube,,542552,,,Voicing,739,b,NonFinal,,
717,,DispreferenceFirst,dispreferenceFirst,-0.47961630695443647,,,,,2085,bikup,,544791,,,Devoicing,740,p,Final,,
718,,DispreferenceFirst,dispreferenceFirst,-0.2910360884749709,,,,,3436, ,,546142,,,Devoicing,741,,NonFinal,,
719,,DispreferenceFirst,dispreferenceFirst,-0.32808398950131235,,,,,3048,tekup,,549420,,,Devoicing,742,p,Final,,
720,,DispreferenceFirst,dispreferenceFirst,-0.6361323155216285,,,,,1572,pigebe,,551140,,,Voicing,743,b,NonFinal,,
721,,DispreferenceFirst,dispreferenceFirst,-0.40290088638195004,,,,,2482,pigep,,553769,,,Devoicing,744,p,Final,,
722,,DispreferenceFirst,dispreferenceFirst,-0.3688675765400221,,,,,2711,todube,,556639,,,Voicing,745,b,NonFinal,,
723,,DispreferenceFirst,dispreferenceFirst,-0.44603033006244425,,,,,2242,dikep,,559069,,,Devoicing,746,p,Final,,
724,,DispreferenceFirst,dispreferenceFirst,-0.4065040650406504,,,,,2460,dogip,,561728,,,Devoicing,747,p,Final,,
725,,DispreferenceFirst,dispreferenceFirst,-0.3952569169960474,,,,,2530,dikebe,,564437,,,Voicing,748,b,NonFinal,,
726,,DispreferenceFirst,dispreferenceFirst,-0.5518763796909493,,,,,1812,bogebe,,566437,,,Voicing,749,b,NonFinal,,
727,,DispreferenceFirst,dispreferenceFirst,-0.6038647342995169,,,,,1656,pidop,,568247,,,Devoicing,750,p,Final,,
728,,DispreferenceFirst,dispreferenceFirst,-0.3286230693394676,,,,,3043,pidobe,,571446,,,Voicing,751,b,NonFinal,,
729,,DispreferenceFirst,dispreferenceFirst,-0.46296296296296297,,,,,2160,bogep,,573756,,,Devoicing,752,p,Final,,
730,,DispreferenceFirst,dispreferenceFirst,-0.5417118093174431,,,,,1846,tekube,,575796,,,Voicing,753,b,NonFinal,,
731,,DispreferenceFirst,dispreferenceFirst,-0.7336757153338225,,,,,1363,degop,,577375,,,Devoicing,754,p,Final,,
732,,DispreferenceFirst,dispreferenceFirst,-0.41841004184100417,,,,,2390,gotebe,,579915,,,Voicing,755,b,NonFinal,,
733,,DispreferenceFirst,dispreferenceFirst,-0.5844535359438925,,,,,1711,todibe,,581824,,,Voicing,756,b,NonFinal,,
734,,DispreferenceFirst,dispreferenceFirst,-0.4816955684007707,,,,,2076,dokup,,584044,,,Devoicing,757,p,Final,,
735,,DispreferenceFirst,dispreferenceFirst,-0.29770765108663294,,,,,3359,potip,,587554,,,Devoicing,758,p,Final,,
736,,DispreferenceFirst,dispreferenceFirst,-0.49382716049382713,,,,,2025,dogibe,,589763,,,Voicing,759,b,NonFinal,,
737,,DispreferenceFirst,dispreferenceFirst,-0.5627462014631401,,,,,1777,bikube,,591693,,,Voicing,760,b,NonFinal,,
738,,DispreferenceFirst,dispreferenceFirst,-0.38804811796662786,,,,,2577,bikup,,594432,,,Devoicing,761,p,Final,,
739,,DispreferenceFirst,dispreferenceFirst,-0.49261083743842365,,,,,2030,potibe,,596612,,,Voicing,762,b,NonFinal,,
740,,DispreferenceFirst,dispreferenceFirst,-0.44583147570218457,,,,,2243,gutop,,599001,,,Devoicing,763,p,Final,,
741,,DispreferenceFirst,dispreferenceFirst,-0.5698005698005698,,,,,1755,bidop,,600962,,,Devoicing,764,p,Final,,
742,,DispreferenceFirst,dispreferenceFirst,-0.5621135469364812,,,,,1779,todup,,602930,,,Devoicing,765,p,Final,,
743,,DispreferenceFirst,dispreferenceFirst,-0.5488474204171241,,,,,1822,bugibe,,604901,,,Voicing,766,b,NonFinal,,
744,,DispreferenceFirst,dispreferenceFirst,-0.36764705882352944,,,,,2720,bugip,,607770,,,Devoicing,767,p,Final,,
745,,DispreferenceFirst,dispreferenceFirst,-0.7067137809187279,,,,,1415,degobe,,609379,,,Voicing,768,b,NonFinal,,
746,,DispreferenceFirst,dispreferenceFirst,-0.6675567423230975,,,,,1498,dokube,,611029,,,Voicing,769,b,NonFinal,,
747,,DispreferenceFirst,dispreferenceFirst,-0.6988120195667366,,,,,1431,gotep,,612610,,,Devoicing,770,p,Final,,
748,,DispreferenceFirst,dispreferenceFirst,-0.8368200836820083,,,,,1195,bidobe,,613978,,,Voicing,771,b,NonFinal,,
749,,DispreferenceFirst,dispreferenceFirst,-0.501002004008016,,,,,1996,todip,,616128,,,Devoicing,772,p,Final,,
750,,DispreferenceFirst,dispreferenceFirst,-0.7993605115907274,,,,,1251,gutobe,,617568,,,Voicing,773,b,NonFinal,,
751,,DispreferenceFirst,dispreferenceFirst,-0.3343363423604146,,,,,2991, ,,619308,,,Devoicing,774,,NonFinal,,
752,,DispreferenceFirst,dispreferenceFirst,-0.48828125,,,,,2048,todup,,621638,,,Devoicing,775,p,Final,,
753,,DispreferenceFirst,dispreferenceFirst,-0.5192107995846313,,,,,1926,dikep,,623718,,,Devoicing,776,p,Final,,
754,,DispreferenceFirst,dispreferenceFirst,-0.38022813688212925,,,,,2630,pigep,,626556,,,Devoicing,777,p,Final,,
755,,DispreferenceFirst,dispreferenceFirst,-0.612369871402327,,,,,1633,dokup,,628406,,,Devoicing,778,p,Final,,
756,,DispreferenceFirst,dispreferenceFirst,-0.45392646391284613,,,,,2203,bidobe,,630826,,,Voicing,779,b,NonFinal,,
757,,DispreferenceFirst,dispreferenceFirst,-0.47573739295908657,,,,,2102,potibe,,633126,,,Voicing,780,b,NonFinal,,
758,,DispreferenceFirst,dispreferenceFirst,-0.5668934240362812,,,,,1764,bugibe,,635035,,,Voicing,781,b,NonFinal,,
759,,DispreferenceFirst,dispreferenceFirst,-0.4662004662004662,,,,,2145,bikup,,637334,,,Devoicing,782,p,Final,,
760,,DispreferenceFirst,dispreferenceFirst,-0.4670714619336759,,,,,2141,bugip,,639664,,,Devoicing,783,p,Final,,
761,,DispreferenceFirst,dispreferenceFirst,-0.339097999321804,,,,,2949,degop,,642803,,,Devoicing,784,p,Final,,
762,,DispreferenceFirst,dispreferenceFirst,-0.6711409395973155,,,,,1490,degobe,,644443,,,Voicing,785,b,NonFinal,,
763,,DispreferenceFirst,dispreferenceFirst,-0.32393909944930355,,,,,3087,todip,,647703,,,Devoicing,786,p,Final,,
764,,DispreferenceFirst,dispreferenceFirst,-0.6176652254478073,,,,,1619,gotep,,649512,,,Devoicing,787,p,Final,,
765,,DispreferenceFirst,dispreferenceFirst,-0.5091649694501018,,,,,1964,todube,,651632,,,Voicing,788,b,NonFinal,,
766,,DispreferenceFirst,dispreferenceFirst,-0.5561735261401557,,,,,1798,bogep,,653631,,,Devoicing,789,p,Final,,
767,,DispreferenceFirst,dispreferenceFirst,-0.48614487117160915,,,,,2057,pidop,,655871,,,Devoicing,790,p,Final,,
768,,DispreferenceFirst,dispreferenceFirst,-0.509683995922528,,,,,1962,gutop,,657981,,,Devoicing,791,p,Final,,
769,,DispreferenceFirst,dispreferenceFirst,-0.7027406886858749,,,,,1423,bidop,,659610,,,Devoicing,792,p,Final,,
770,,DispreferenceFirst,dispreferenceFirst,-0.5449591280653951,,,,,1835,pigebe,,661590,,,Voicing,793,b,NonFinal,,
771,,DispreferenceFirst,dispreferenceFirst,-0.48614487117160915,,,,,2057,pidobe,,663829,,,Voicing,794,b,NonFinal,,
772,,DispreferenceFirst,dispreferenceFirst,-0.33156498673740054,,,,,3016,potip,,666989,,,Devoicing,795,p,Final,,
773,,DispreferenceFirst,dispreferenceFirst,-0.513874614594039,,,,,1946,dogibe,,669188,,,Voicing,796,b,NonFinal,,
774,,DispreferenceFirst,dispreferenceFirst,-0.5827505827505828,,,,,1716,bogebe,,671098,,,Voicing,797,b,NonFinal,,
775,,DispreferenceFirst,dispreferenceFirst,-0.5053057099545225,,,,,1979,dogip,,673248,,,Devoicing,798,p,Final,,
776,,DispreferenceFirst,dispreferenceFirst,-0.7407407407407407,,,,,1350,tekube,,674808,,,Voicing,799,b,NonFinal,,
777,,DispreferenceFirst,dispreferenceFirst,-0.7936507936507936,,,,,1260,gutobe,,676237,,,Voicing,800,b,NonFinal,,
778,,DispreferenceFirst,dispreferenceFirst,-0.43459365493263796,,,,,2301,gotebe,,678687,,,Voicing,801,b,NonFinal,,
779,,DispreferenceFirst,dispreferenceFirst,-0.3207184092366902,,,,,3118,dokube,,681986,,,Voicing,802,b,NonFinal,,
780,,DispreferenceFirst,dispreferenceFirst,-0.6802721088435374,,,,,1470,dikebe,,683616,,,Voicing,803,b,NonFinal,,
781,,DispreferenceFirst,dispreferenceFirst,-0.6915629322268326,,,,,1446,todibe,,685226,,,Voicing,804,b,NonFinal,,
782,,DispreferenceFirst,dispreferenceFirst,-0.819000819000819,,,,,1221,bikube,,686605,,,Voicing,805,b,NonFinal,,
783,,DispreferenceFirst,dispreferenceFirst,-0.922509225092251,,,,,1084,tekup,,687855,,,Devoicing,806,p,Final,,
784,,DispreferenceFirst,dispreferenceFirst,-0.44365572315882873,,,,,2254, ,,689025,,,Devoicing,807,,NonFinal,,
785,,DispreferenceFirst,dispreferenceFirst,-0.7037297677691766,,,,,1421,bikube,,690674,,,Voicing,808,b,NonFinal,,
786,,DispreferenceFirst,dispreferenceFirst,-0.4734848484848485,,,,,2112,dikep,,692935,,,Devoicing,809,p,Final,,
787,,DispreferenceFirst,dispreferenceFirst,-0.5656108597285068,,,,,1768,gotep,,694874,,,Devoicing,810,p,Final,,
788,,DispreferenceFirst,dispreferenceFirst,-0.42140750105351876,,,,,2373,gutobe,,697403,,,Voicing,811,b,NonFinal,,
789,,DispreferenceFirst,dispreferenceFirst,-0.7396449704142012,,,,,1352,degobe,,698943,,,Voicing,812,b,NonFinal,,
790,,DispreferenceFirst,dispreferenceFirst,-0.7961783439490446,,,,,1256,pidobe,,700353,,,Voicing,813,b,NonFinal,,
791,,DispreferenceFirst,dispreferenceFirst,-0.8375209380234506,,,,,1194,dogibe,,701702,,,Voicing,814,b,NonFinal,,
792,,DispreferenceFirst,dispreferenceFirst,-0.916590284142988,,,,,1091,gutop,,703022,,,Devoicing,815,p,Final,,
793,,DispreferenceFirst,dispreferenceFirst,-0.9900990099009901,,,,,1010,todup,,704212,,,Devoicing,816,p,Final,,
794,,DispreferenceFirst,dispreferenceFirst,-0.8733624454148472,,,,,1145,pigebe,,705512,,,Voicing,817,b,NonFinal,,
795,,DispreferenceFirst,dispreferenceFirst,-0.8136696501220505,,,,,1229,tekube,,706902,,,Voicing,818,b,NonFinal,,
796,,DispreferenceFirst,dispreferenceFirst,-0.7535795026375283,,,,,1327,pidop,,708401,,,Devoicing,819,p,Final,,
797,,DispreferenceFirst,dispreferenceFirst,-0.794912559618442,,,,,1258,bogebe,,709811,,,Voicing,820,b,NonFinal,,
798,,DispreferenceFirst,dispreferenceFirst,-0.8244023083264633,,,,,1213,tekup,,711181,,,Devoicing,821,p,Final,,
799,,DispreferenceFirst,dispreferenceFirst,-0.36791758646063283,,,,,2718,pigep,,714050,,,Devoicing,822,p,Final,,
800,,DispreferenceFirst,dispreferenceFirst,-0.7662835249042146,,,,,1305,dikebe,,715550,,,Voicing,823,b,NonFinal,,
801,,DispreferenceFirst,dispreferenceFirst,-0.7524454477050414,,,,,1329,todibe,,717050,,,Voicing,824,b,NonFinal,,
802,,DispreferenceFirst,dispreferenceFirst,-0.800640512409928,,,,,1249,degop,,718450,,,Devoicing,825,p,Final,,
803,,DispreferenceFirst,dispreferenceFirst,-0.7251631617113851,,,,,1379,dokup,,719980,,,Devoicing,826,p,Final,,
804,,DispreferenceFirst,dispreferenceFirst,-0.7168458781362007,,,,,1395,bidop,,721549,,,Devoicing,827,p,Final,,
805,,DispreferenceFirst,dispreferenceFirst,-0.4928536224741252,,,,,2029,todube,,723729,,,Voicing,828,b,NonFinal,,
806,,DispreferenceFirst,dispreferenceFirst,-0.46511627906976744,,,,,2150,potip,,726039,,,Devoicing,829,p,Final,,
807,,DispreferenceFirst,dispreferenceFirst,-0.6414368184733804,,,,,1559,bogep,,727798,,,Devoicing,830,p,Final,,
808,,DispreferenceFirst,dispreferenceFirst,-0.6618133686300464,,,,,1511,todip,,729527,,,Devoicing,831,p,Final,,
809,,DispreferenceFirst,dispreferenceFirst,-0.6082725060827251,,,,,1644,dokube,,731338,,,Voicing,832,b,NonFinal,,
810,,DispreferenceFirst,dispreferenceFirst,-0.7593014426727411,,,,,1317,bidobe,,732817,,,Voicing,833,b,NonFinal,,
811,,DispreferenceFirst,dispreferenceFirst,-0.6684491978609626,,,,,1496,potibe,,734466,,,Voicing,834,b,NonFinal,,
812,,DispreferenceFirst,dispreferenceFirst,-0.7304601899196493,,,,,1369,bugibe,,736006,,,Voicing,835,b,NonFinal,,
813,,DispreferenceFirst,dispreferenceFirst,-0.7867820613690008,,,,,1271,gotebe,,737436,,,Voicing,836,b,NonFinal,,
814,,DispreferenceFirst,dispreferenceFirst,-0.8658008658008658,,,,,1155,bugip,,738746,,,Devoicing,837,p,Final,,
815,,DispreferenceFirst,dispreferenceFirst,-0.9057971014492754,,,,,1104,dogip,,740016,,,Devoicing,838,p,Final,,
816,,DispreferenceFirst,dispreferenceFirst,-0.9372071227741331,,,,,1067,bikup,,741235,,,Devoicing,839,p,Final,,
817,,DispreferenceFirst,dispreferenceFirst,-0.43917435221783047,,,,,2277, ,,742445,,,Devoicing,840,,NonFinal,,
818,,DispreferenceFirst,dispreferenceFirst,-0.40096230954290296,,,,,2494,gutobe,,745165,,,Voicing,841,b,NonFinal,,
819,,DispreferenceFirst,dispreferenceFirst,-0.8598452278589854,,,,,1163,gutop,,746484,,,Devoicing,842,p,Final,,
820,,DispreferenceFirst,dispreferenceFirst,-0.7204610951008645,,,,,1388,pigebe,,748074,,,Voicing,843,b,NonFinal,,
821,,DispreferenceFirst,dispreferenceFirst,-0.7593014426727411,,,,,1317,gotebe,,749544,,,Voicing,844,b,NonFinal,,
822,,DispreferenceFirst,dispreferenceFirst,-0.7776049766718507,,,,,1286,bogep,,750983,,,Devoicing,845,p,Final,,
823,,DispreferenceFirst,dispreferenceFirst,-0.800640512409928,,,,,1249,gotep,,752384,,,Devoicing,846,p,Final,,
824,,DispreferenceFirst,dispreferenceFirst,-0.8445945945945946,,,,,1184,dikep,,753723,,,Devoicing,847,p,Final,,
825,,DispreferenceFirst,dispreferenceFirst,-0.4725897920604915,,,,,2116,degop,,756014,,,Devoicing,848,p,Final,,
826,,DispreferenceFirst,dispreferenceFirst,-0.7401924500370096,,,,,1351,potibe,,757572,,,Voicing,849,b,NonFinal,,
827,,DispreferenceFirst,dispreferenceFirst,-0.7468259895444361,,,,,1339,potip,,759072,,,Devoicing,850,p,Final,,
828,,DispreferenceFirst,dispreferenceFirst,-0.8665511265164645,,,,,1154,bugibe,,760382,,,Voicing,851,b,NonFinal,,
829,,DispreferenceFirst,dispreferenceFirst,-0.8417508417508418,,,,,1188,bidobe,,761842,,,Voicing,852,b,NonFinal,,
830,,DispreferenceFirst,dispreferenceFirst,-0.7194244604316546,,,,,1390,todip,,763391,,,Devoicing,853,p,Final,,
831,,DispreferenceFirst,dispreferenceFirst,-0.3904724716907458,,,,,2561,bikup,,766111,,,Devoicing,854,p,Final,,
832,,DispreferenceFirst,dispreferenceFirst,-0.5202913631633714,,,,,1922,todibe,,768180,,,Voicing,855,b,NonFinal,,
833,,DispreferenceFirst,dispreferenceFirst,-0.3141690229343387,,,,,3183,tekup,,771510,,,Devoicing,856,p,Final,,
834,,DispreferenceFirst,dispreferenceFirst,-0.5293806246691372,,,,,1889,pidobe,,773549,,,Voicing,857,b,NonFinal,,
835,,DispreferenceFirst,dispreferenceFirst,-0.6042296072507553,,,,,1655,dikebe,,775359,,,Voicing,858,b,NonFinal,,
836,,DispreferenceFirst,dispreferenceFirst,-0.819000819000819,,,,,1221,bugip,,776729,,,Devoicing,859,p,Final,,
837,,DispreferenceFirst,dispreferenceFirst,-0.7727975270479135,,,,,1294,degobe,,778188,,,Voicing,860,b,NonFinal,,
838,,DispreferenceFirst,dispreferenceFirst,-0.6802721088435374,,,,,1470,dogip,,779808,,,Devoicing,861,p,Final,,
839,,DispreferenceFirst,dispreferenceFirst,-0.7067137809187279,,,,,1415,dokube,,781368,,,Voicing,862,b,NonFinal,,
840,,DispreferenceFirst,dispreferenceFirst,-0.6523157208088715,,,,,1533,todube,,783048,,,Voicing,863,b,NonFinal,,
841,,DispreferenceFirst,dispreferenceFirst,-0.6978367062107467,,,,,1433,bikube,,784648,,,Voicing,864,b,NonFinal,,
842,,DispreferenceFirst,dispreferenceFirst,-0.7451564828614009,,,,,1342,dokup,,786157,,,Devoicing,865,p,Final,,
843,,DispreferenceFirst,dispreferenceFirst,-0.6365372374283895,,,,,1571,tekube,,787877,,,Voicing,866,b,NonFinal,,
844,,DispreferenceFirst,dispreferenceFirst,-0.7880220646178093,,,,,1269,pigep,,789296,,,Devoicing,867,p,Final,,
845,,DispreferenceFirst,dispreferenceFirst,-0.42535091450446616,,,,,2351,bogebe,,791796,,,Voicing,868,b,NonFinal,,
846,,DispreferenceFirst,dispreferenceFirst,-0.693000693000693,,,,,1443,pidop,,793397,,,Devoicing,869,p,Final,,
847,,DispreferenceFirst,dispreferenceFirst,-0.6527415143603134,,,,,1532,dogibe,,795096,,,Voicing,870,b,NonFinal,,
848,,DispreferenceFirst,dispreferenceFirst,-0.7429420505200595,,,,,1346,bidop,,796595,,,Devoicing,871,p,Final,,
849,,DispreferenceFirst,dispreferenceFirst,-0.7836990595611285,,,,,1276,todup,,798025,,,Devoicing,872,p,Final,,
850,,DispreferenceFirst,dispreferenceFirst,-0.32404406999351915,,,,,3086, ,,799835,,,Devoicing,873,,NonFinal,,
851,,DispreferenceFirst,dispreferenceFirst,-0.47778308647873863,,,,,2093,dokub,,76660,,,Voicing,874,b,Final,,
852,,DispreferenceFirst,dispreferenceFirst,-0.5910165484633569,,,,,1692,bidope,,78540,,,Devoicing,875,p,NonFinal,,
853,,DispreferenceFirst,dispreferenceFirst,-0.6127450980392157,,,,,1632,potib,,80319,,,Voicing,876,b,Final,,
854,,DispreferenceFirst,dispreferenceFirst,-0.6447453255963894,,,,,1551,bugipe,,82029,,,Devoicing,877,p,NonFinal,,
855,,DispreferenceFirst,dispreferenceFirst,-0.7369196757553427,,,,,1357,pidob,,83549,,,Voicing,878,b,Final,,
856,,DispreferenceFirst,dispreferenceFirst,-0.723589001447178,,,,,1382,todipe,,85089,,,Devoicing,879,p,NonFinal,,
857,,DispreferenceFirst,dispreferenceFirst,-0.6150061500615006,,,,,1626,bikupe,,86888,,,Devoicing,880,p,NonFinal,,
858,,DispreferenceFirst,dispreferenceFirst,-0.6891798759476223,,,,,1451,degope,,88528,,,Devoicing,881,p,NonFinal,,
859,,DispreferenceFirst,dispreferenceFirst,-0.5399568034557235,,,,,1852,todib,,90548,,,Voicing,882,b,Final,,
860,,DispreferenceFirst,dispreferenceFirst,-0.6108735491753207,,,,,1637,gotepe,,92387,,,Devoicing,883,p,NonFinal,,
861,,DispreferenceFirst,dispreferenceFirst,-0.8532423208191127,,,,,1172,bidob,,93717,,,Voicing,884,b,Final,,
862,,DispreferenceFirst,dispreferenceFirst,-0.6729475100942126,,,,,1486,dikepe,,95357,,,Devoicing,885,p,NonFinal,,
863,,DispreferenceFirst,dispreferenceFirst,-0.8116883116883117,,,,,1232,pigeb,,96737,,,Voicing,886,b,Final,,
864,,DispreferenceFirst,dispreferenceFirst,-0.7468259895444361,,,,,1339,pigepe,,98236,,,Devoicing,887,p,NonFinal,,
865,,DispreferenceFirst,dispreferenceFirst,-0.7267441860465116,,,,,1376,tekupe,,99766,,,Devoicing,888,p,NonFinal,,
866,,DispreferenceFirst,dispreferenceFirst,-0.9871668311944719,,,,,1013,bogeb,,100946,,,Voicing,889,b,Final,,
867,,DispreferenceFirst,dispreferenceFirst,-0.8748906386701663,,,,,1143,bugib,,102245,,,Voicing,890,b,Final,,
868,,DispreferenceFirst,dispreferenceFirst,-0.7898894154818326,,,,,1266,potipe,,103665,,,Devoicing,891,p,NonFinal,,
869,,DispreferenceFirst,dispreferenceFirst,-0.8873114463176575,,,,,1127,degob,,104955,,,Voicing,892,b,Final,,
870,,DispreferenceFirst,dispreferenceFirst,-0.800640512409928,,,,,1249,dogipe,,106365,,,Devoicing,893,p,NonFinal,,
871,,DispreferenceFirst,dispreferenceFirst,-0.7911392405063291,,,,,1264,dikeb,,107814,,,Voicing,894,b,Final,,
872,,DispreferenceFirst,dispreferenceFirst,-0.9433962264150944,,,,,1060,tekub,,109024,,,Voicing,895,b,Final,,
873,,DispreferenceFirst,dispreferenceFirst,-0.9970089730807578,,,,,1003,todub,,110194,,,Voicing,896,b,Final,,
