,expt_id,Group,group_id,invRT,Trial,participant_id,response_correct,response_name,response_rt,stimuli_presented,trial_template,trial_duration,PartBlocks,AllBlocks,Pattern,trial_num,PB,Final,Part,Correct
1,,DispreferenceFirst,dispreferenceFirst,-333.3333333333333,,,(based on tag)
2,,DispreferenceFirst,dispreferenceFirst,-0.5656108597285068,,,(based on tag)
3,,DispreferenceFirst,dispreferenceFirst,-0.7077140835102619,,,(based on tag)
4,,DispreferenceFirst,dispreferenceFirst,-0.6939625260235948,,,(based on tag)
5,,DispreferenceFirst,dispreferenceFirst,-0.5973715651135006,,,(based on tag)
6,,DispreferenceFirst,dispreferenceFirst,-0.7309941520467836,,,(based on tag)
7,,DispreferenceFirst,dispreferenceFirst,-0.7440476190476191,,,(based on tag)
8,,DispreferenceFirst,dispreferenceFirst,-0.8496176720475785,,,(based on tag)
9,,DispreferenceFirst,dispreferenceFirst,-0.8012820512820513,,,(based on tag)
10,,DispreferenceFirst,dispreferenceFirst,-0.8298755186721992,,,(based on tag)
11,,DispreferenceFirst,dispreferenceFirst,-0.9505703422053232,,,(based on tag)
12,,DispreferenceFirst,dispreferenceFirst,-0.8025682182985554,,,(based on tag)
13,,DispreferenceFirst,dispreferenceFirst,-0.7479431563201197,,,(based on tag)
14,,DispreferenceFirst,dispreferenceFirst,-0.9775171065493646,,,(based on tag)
15,,DispreferenceFirst,dispreferenceFirst,-0.8873114463176575,,,(based on tag)
16,,DispreferenceFirst,dispreferenceFirst,-0.8460236886632826,,,(based on tag)
17,,DispreferenceFirst,dispreferenceFirst,-0.7656967840735069,,,(based on tag)
18,,DispreferenceFirst,dispreferenceFirst,-0.7331378299120235,,,(based on tag)
19,,DispreferenceFirst,dispreferenceFirst,-0.8237232289950577,,,(based on tag)
20,,DispreferenceFirst,dispreferenceFirst,-0.8445945945945946,,,(based on tag)
21,,DispreferenceFirst,dispreferenceFirst,-0.757002271006813,,,(based on tag)
22,,DispreferenceFirst,dispreferenceFirst,-0.5945303210463734,,,(based on tag)
23,,DispreferenceFirst,dispreferenceFirst,-0.8123476848090982,,,(based on tag)
24,,DispreferenceFirst,dispreferenceFirst,-0.7107320540156361,,,(based on tag)
25,,DispreferenceFirst,dispreferenceFirst,-0.9652509652509652,,,(based on tag)
26,,DispreferenceFirst,dispreferenceFirst,-0.9578544061302682,,,(based on tag)
27,,DispreferenceFirst,dispreferenceFirst,-0.8382229673093042,,,(based on tag)
28,,DispreferenceFirst,dispreferenceFirst,-1.1049723756906078,,,(based on tag)
29,,DispreferenceFirst,dispreferenceFirst,-0.8271298593879239,,,(based on tag)
30,,DispreferenceFirst,dispreferenceFirst,-1.0319917440660475,,,(based on tag)
31,,DispreferenceFirst,dispreferenceFirst,-0.856898029134533,,,(based on tag)
32,,DispreferenceFirst,dispreferenceFirst,-0.9208103130755064,,,(based on tag)
33,,DispreferenceFirst,dispreferenceFirst,-0.08275405494869248,,,(any response)
34,,DispreferenceFirst,dispreferenceFirst,-0.7331378299120235,,,(based on tag)
35,,DispreferenceFirst,dispreferenceFirst,-0.777000777000777,,,(based on tag)
36,,DispreferenceFirst,dispreferenceFirst,-0.6153846153846154,,,(based on tag)
37,,DispreferenceFirst,dispreferenceFirst,-0.8216926869350862,,,(based on tag)
38,,DispreferenceFirst,dispreferenceFirst,-0.9149130832570905,,,(based on tag)
39,,DispreferenceFirst,dispreferenceFirst,-0.7616146230007617,,,(based on tag)
40,,DispreferenceFirst,dispreferenceFirst,-1.0298661174047374,,,(based on tag)
41,,DispreferenceFirst,dispreferenceFirst,-1.1933174224343674,,,(based on tag)
42,,DispreferenceFirst,dispreferenceFirst,-1.203369434416366,,,(based on tag)
43,,DispreferenceFirst,dispreferenceFirst,-0.8688097306689835,,,(based on tag)
44,,DispreferenceFirst,dispreferenceFirst,-0.8084074373484236,,,(based on tag)
45,,DispreferenceFirst,dispreferenceFirst,-0.8382229673093042,,,(based on tag)
46,,DispreferenceFirst,dispreferenceFirst,-1.0224948875255624,,,(based on tag)
47,,DispreferenceFirst,dispreferenceFirst,-0.7423904974016332,,,(based on tag)
48,,DispreferenceFirst,dispreferenceFirst,-0.9041591320072333,,,(based on tag)
49,,DispreferenceFirst,dispreferenceFirst,-0.7299270072992701,,,(based on tag)
50,,DispreferenceFirst,dispreferenceFirst,-0.78125,,,(based on tag)
51,,DispreferenceFirst,dispreferenceFirst,-0.8051529790660226,,,(based on tag)
52,,DispreferenceFirst,dispreferenceFirst,-0.7880220646178093,,,(based on tag)
53,,DispreferenceFirst,dispreferenceFirst,-0.8865248226950354,,,(based on tag)
54,,DispreferenceFirst,dispreferenceFirst,-0.7604562737642585,,,(based on tag)
55,,DispreferenceFirst,dispreferenceFirst,-0.9624639076034649,,,(based on tag)
56,,DispreferenceFirst,dispreferenceFirst,-0.8084074373484236,,,(based on tag)
57,,DispreferenceFirst,dispreferenceFirst,-0.8264462809917356,,,(based on tag)
58,,DispreferenceFirst,dispreferenceFirst,-1.0,,,(based on tag)
59,,DispreferenceFirst,dispreferenceFirst,-0.8920606601248885,,,(based on tag)
60,,DispreferenceFirst,dispreferenceFirst,-0.9049773755656109,,,(based on tag)
61,,DispreferenceFirst,dispreferenceFirst,-0.8169934640522876,,,(based on tag)
62,,DispreferenceFirst,dispreferenceFirst,-0.9689922480620154,,,(based on tag)
63,,DispreferenceFirst,dispreferenceFirst,-1.0471204188481675,,,(based on tag)
64,,DispreferenceFirst,dispreferenceFirst,-0.9587727708533078,,,(based on tag)
65,,DispreferenceFirst,dispreferenceFirst,-0.7117437722419929,,,(based on tag)
66,,DispreferenceFirst,dispreferenceFirst,-0.04851542790607413,,,(any response)
67,,DispreferenceFirst,dispreferenceFirst,-0.7204610951008645,,,(based on tag)
68,,DispreferenceFirst,dispreferenceFirst,-1.016260162601626,,,(based on tag)
69,,DispreferenceFirst,dispreferenceFirst,-0.8045052292839904,,,(based on tag)
70,,DispreferenceFirst,dispreferenceFirst,-0.8481764206955047,,,(based on tag)
71,,DispreferenceFirst,dispreferenceFirst,-0.7446016381236039,,,(based on tag)
72,,DispreferenceFirst,dispreferenceFirst,-0.7616146230007617,,,(based on tag)
73,,DispreferenceFirst,dispreferenceFirst,-0.7830853563038371,,,(based on tag)
74,,DispreferenceFirst,dispreferenceFirst,-0.8613264427217916,,,(based on tag)
75,,DispreferenceFirst,dispreferenceFirst,-0.9523809523809523,,,(based on tag)
76,,DispreferenceFirst,dispreferenceFirst,-0.8598452278589854,,,(based on tag)
77,,DispreferenceFirst,dispreferenceFirst,-0.8488964346349746,,,(based on tag)
78,,DispreferenceFirst,dispreferenceFirst,-1.0471204188481675,,,(based on tag)
79,,DispreferenceFirst,dispreferenceFirst,-0.8764241893076249,,,(based on tag)
80,,DispreferenceFirst,dispreferenceFirst,-0.6684491978609626,,,(based on tag)
81,,DispreferenceFirst,dispreferenceFirst,-0.9940357852882704,,,(based on tag)
82,,DispreferenceFirst,dispreferenceFirst,-37.03703703703704,,,(based on tag)
83,,DispreferenceFirst,dispreferenceFirst,-1.1560693641618498,,,(based on tag)
84,,DispreferenceFirst,dispreferenceFirst,-0.8849557522123894,,,(based on tag)
85,,DispreferenceFirst,dispreferenceFirst,-0.9276437847866419,,,(based on tag)
86,,DispreferenceFirst,dispreferenceFirst,-1.0822510822510822,,,(based on tag)
87,,DispreferenceFirst,dispreferenceFirst,-0.9328358208955224,,,(based on tag)
88,,DispreferenceFirst,dispreferenceFirst,-0.9041591320072333,,,(based on tag)
89,,DispreferenceFirst,dispreferenceFirst,-0.8771929824561403,,,(based on tag)
90,,DispreferenceFirst,dispreferenceFirst,-0.8382229673093042,,,(based on tag)
91,,DispreferenceFirst,dispreferenceFirst,-0.9337068160597572,,,(based on tag)
92,,DispreferenceFirst,dispreferenceFirst,-1.0204081632653061,,,(based on tag)
93,,DispreferenceFirst,dispreferenceFirst,-1.0845986984815619,,,(based on tag)
94,,DispreferenceFirst,dispreferenceFirst,-0.78125,,,(based on tag)
95,,DispreferenceFirst,dispreferenceFirst,-0.8673026886383348,,,(based on tag)
96,,DispreferenceFirst,dispreferenceFirst,-0.9718172983479106,,,(based on tag)
97,,DispreferenceFirst,dispreferenceFirst,-0.7547169811320755,,,(based on tag)
98,,DispreferenceFirst,dispreferenceFirst,-0.9727626459143969,,,(based on tag)
99,,DispreferenceFirst,dispreferenceFirst,-0.08616232982939859,,,(any response)
100,,DispreferenceFirst,dispreferenceFirst,-0.9363295880149812,,,(based on tag)
101,,DispreferenceFirst,dispreferenceFirst,-1.0615711252653928,,,(based on tag)
102,,DispreferenceFirst,dispreferenceFirst,-0.8169934640522876,,,(based on tag)
103,,DispreferenceFirst,dispreferenceFirst,-0.9259259259259259,,,(based on tag)
104,,DispreferenceFirst,dispreferenceFirst,-1.0427528675703859,,,(based on tag)
105,,DispreferenceFirst,dispreferenceFirst,-1.1123470522803114,,,(based on tag)
106,,DispreferenceFirst,dispreferenceFirst,-0.9794319294809011,,,(based on tag)
107,,DispreferenceFirst,dispreferenceFirst,-0.8920606601248885,,,(based on tag)
108,,DispreferenceFirst,dispreferenceFirst,-0.9302325581395349,,,(based on tag)
109,,DispreferenceFirst,dispreferenceFirst,-0.8810572687224669,,,(based on tag)
110,,DispreferenceFirst,dispreferenceFirst,-0.9442870632672332,,,(based on tag)
111,,DispreferenceFirst,dispreferenceFirst,-1.1389521640091116,,,(based on tag)
112,,DispreferenceFirst,dispreferenceFirst,-1.1820330969267139,,,(based on tag)
113,,DispreferenceFirst,dispreferenceFirst,-0.819000819000819,,,(based on tag)
114,,DispreferenceFirst,dispreferenceFirst,-0.8810572687224669,,,(based on tag)
115,,DispreferenceFirst,dispreferenceFirst,-0.8375209380234506,,,(based on tag)
116,,DispreferenceFirst,dispreferenceFirst,-0.9514747859181731,,,(based on tag)
117,,DispreferenceFirst,dispreferenceFirst,-1.0695187165775402,,,(based on tag)
118,,DispreferenceFirst,dispreferenceFirst,-1.3157894736842106,,,(based on tag)
119,,DispreferenceFirst,dispreferenceFirst,-0.8665511265164645,,,(based on tag)
120,,DispreferenceFirst,dispreferenceFirst,-0.7524454477050414,,,(based on tag)
121,,DispreferenceFirst,dispreferenceFirst,-0.8976660682226212,,,(based on tag)
122,,DispreferenceFirst,dispreferenceFirst,-0.7824726134585289,,,(based on tag)
123,,DispreferenceFirst,dispreferenceFirst,-0.8787346221441125,,,(based on tag)
124,,DispreferenceFirst,dispreferenceFirst,-0.8756567425569177,,,(based on tag)
125,,DispreferenceFirst,dispreferenceFirst,-0.9416195856873822,,,(based on tag)
126,,DispreferenceFirst,dispreferenceFirst,-0.8123476848090982,,,(based on tag)
127,,DispreferenceFirst,dispreferenceFirst,-0.8525149190110827,,,(based on tag)
128,,DispreferenceFirst,dispreferenceFirst,-0.7849293563579278,,,(based on tag)
129,,DispreferenceFirst,dispreferenceFirst,-1.0080645161290323,,,(based on tag)
130,,DispreferenceFirst,dispreferenceFirst,-0.7727975270479135,,,(based on tag)
131,,DispreferenceFirst,dispreferenceFirst,-0.8460236886632826,,,(based on tag)
132,,DispreferenceFirst,dispreferenceFirst,-0.12514078338130397,,,(any response)
133,,DispreferenceFirst,dispreferenceFirst,-0.9727626459143969,,,(based on tag)
134,,DispreferenceFirst,dispreferenceFirst,-0.7987220447284346,,,(based on tag)
135,,DispreferenceFirst,dispreferenceFirst,-1.0405827263267429,,,(based on tag)
136,,DispreferenceFirst,dispreferenceFirst,-0.7530120481927711,,,(based on tag)
137,,DispreferenceFirst,dispreferenceFirst,-0.7092198581560284,,,(based on tag)
138,,DispreferenceFirst,dispreferenceFirst,-0.724112961622013,,,(based on tag)
139,,DispreferenceFirst,dispreferenceFirst,-0.8787346221441125,,,(based on tag)
140,,DispreferenceFirst,dispreferenceFirst,-0.916590284142988,,,(based on tag)
141,,DispreferenceFirst,dispreferenceFirst,-1.0204081632653061,,,(based on tag)
142,,DispreferenceFirst,dispreferenceFirst,-0.6548788474132285,,,(based on tag)
143,,DispreferenceFirst,dispreferenceFirst,-0.7955449482895783,,,(based on tag)
144,,DispreferenceFirst,dispreferenceFirst,-0.6958942240779401,,,(based on tag)
145,,DispreferenceFirst,dispreferenceFirst,-1.0050251256281406,,,(based on tag)
146,,DispreferenceFirst,dispreferenceFirst,-1.0638297872340425,,,(based on tag)
147,,DispreferenceFirst,dispreferenceFirst,-0.8431703204047217,,,(based on tag)
148,,DispreferenceFirst,dispreferenceFirst,-0.8650519031141869,,,(based on tag)
149,,DispreferenceFirst,dispreferenceFirst,-0.9578544061302682,,,(based on tag)
150,,DispreferenceFirst,dispreferenceFirst,-1.0493179433368311,,,(based on tag)
151,,DispreferenceFirst,dispreferenceFirst,-1.183431952662722,,,(based on tag)
152,,DispreferenceFirst,dispreferenceFirst,-0.8110300081103001,,,(based on tag)
153,,DispreferenceFirst,dispreferenceFirst,-0.9433962264150944,,,(based on tag)
154,,DispreferenceFirst,dispreferenceFirst,-1.0050251256281406,,,(based on tag)
155,,DispreferenceFirst,dispreferenceFirst,-1.1806375442739079,,,(based on tag)
156,,DispreferenceFirst,dispreferenceFirst,-0.9267840593141798,,,(based on tag)
157,,DispreferenceFirst,dispreferenceFirst,-0.9852216748768473,,,(based on tag)
158,,DispreferenceFirst,dispreferenceFirst,-0.8084074373484236,,,(based on tag)
159,,DispreferenceFirst,dispreferenceFirst,-0.6406149903907752,,,(based on tag)
160,,DispreferenceFirst,dispreferenceFirst,-0.7680491551459293,,,(based on tag)
161,,DispreferenceFirst,dispreferenceFirst,-0.7256894049346879,,,(based on tag)
162,,DispreferenceFirst,dispreferenceFirst,-0.601684717208183,,,(based on tag)
163,,DispreferenceFirst,dispreferenceFirst,-0.7173601147776184,,,(based on tag)
164,,DispreferenceFirst,dispreferenceFirst,-0.5608524957936063,,,(based on tag)
165,,DispreferenceFirst,dispreferenceFirst,-0.076103500761035,,,(any response)
166,,DispreferenceFirst,dispreferenceFirst,-0.6868131868131868,,,(based on tag)
167,,DispreferenceFirst,dispreferenceFirst,-0.6779661016949152,,,(based on tag)
168,,DispreferenceFirst,dispreferenceFirst,-0.45599635202918376,,,(based on tag)
169,,DispreferenceFirst,dispreferenceFirst,-0.5521811154058531,,,(based on tag)
170,,DispreferenceFirst,dispreferenceFirst,-0.5382131324004306,,,(based on tag)
171,,DispreferenceFirst,dispreferenceFirst,-0.6574621959237343,,,(based on tag)
172,,DispreferenceFirst,dispreferenceFirst,-0.746268656716418,,,(based on tag)
173,,DispreferenceFirst,dispreferenceFirst,-0.8680555555555556,,,(based on tag)
174,,DispreferenceFirst,dispreferenceFirst,-0.6501950585175552,,,(based on tag)
175,,DispreferenceFirst,dispreferenceFirst,-0.7336757153338225,,,(based on tag)
176,,DispreferenceFirst,dispreferenceFirst,-0.9578544061302682,,,(based on tag)
177,,DispreferenceFirst,dispreferenceFirst,-0.6747638326585695,,,(based on tag)
178,,DispreferenceFirst,dispreferenceFirst,-0.6793478260869565,,,(based on tag)
179,,DispreferenceFirst,dispreferenceFirst,-0.648508430609598,,,(based on tag)
180,,DispreferenceFirst,dispreferenceFirst,-0.8250825082508251,,,(based on tag)
181,,DispreferenceFirst,dispreferenceFirst,-0.7662835249042146,,,(based on tag)
182,,DispreferenceFirst,dispreferenceFirst,-0.8680555555555556,,,(based on tag)
183,,DispreferenceFirst,dispreferenceFirst,-0.32894736842105265,,,(based on tag)
184,,DispreferenceFirst,dispreferenceFirst,-0.687757909215956,,,(based on tag)
185,,DispreferenceFirst,dispreferenceFirst,-0.7168458781362007,,,(based on tag)
186,,DispreferenceFirst,dispreferenceFirst,-0.8802816901408451,,,(based on tag)
187,,DispreferenceFirst,dispreferenceFirst,-0.9930486593843099,,,(based on tag)
188,,DispreferenceFirst,dispreferenceFirst,-0.7485029940119761,,,(based on tag)
189,,DispreferenceFirst,dispreferenceFirst,-0.8680555555555556,,,(based on tag)
190,,DispreferenceFirst,dispreferenceFirst,-0.8291873963515755,,,(based on tag)
191,,DispreferenceFirst,dispreferenceFirst,-0.5714285714285714,,,(based on tag)
192,,DispreferenceFirst,dispreferenceFirst,-0.7905138339920948,,,(based on tag)
193,,DispreferenceFirst,dispreferenceFirst,-0.9033423667570009,,,(based on tag)
194,,DispreferenceFirst,dispreferenceFirst,-0.8826125330979699,,,(based on tag)
195,,DispreferenceFirst,dispreferenceFirst,-0.9363295880149812,,,(based on tag)
196,,DispreferenceFirst,dispreferenceFirst,-0.4631773969430292,,,(based on tag)
197,,DispreferenceFirst,dispreferenceFirst,-1.091703056768559,,,(based on tag)
198,,DispreferenceFirst,dispreferenceFirst,-0.06696129637069774,,,(any response)
199,,DispreferenceFirst,dispreferenceFirst,-0.5200208008320333,,,(based on tag)
200,,DispreferenceFirst,dispreferenceFirst,-0.9242144177449169,,,(based on tag)
201,,DispreferenceFirst,dispreferenceFirst,-0.9891196834817013,,,(based on tag)
202,,DispreferenceFirst,dispreferenceFirst,-0.8880994671403197,,,(based on tag)
203,,DispreferenceFirst,dispreferenceFirst,-0.7092198581560284,,,(based on tag)
204,,DispreferenceFirst,dispreferenceFirst,-0.7189072609633357,,,(based on tag)
205,,DispreferenceFirst,dispreferenceFirst,-0.7342143906020558,,,(based on tag)
206,,DispreferenceFirst,dispreferenceFirst,-0.8888888888888888,,,(based on tag)
207,,DispreferenceFirst,dispreferenceFirst,-0.7220216606498195,,,(based on tag)
208,,DispreferenceFirst,dispreferenceFirst,-0.831946755407654,,,(based on tag)
209,,DispreferenceFirst,dispreferenceFirst,-0.942507068803016,,,(based on tag)
210,,DispreferenceFirst,dispreferenceFirst,-0.9276437847866419,,,(based on tag)
211,,DispreferenceFirst,dispreferenceFirst,-0.49677098857426727,,,(based on tag)
212,,DispreferenceFirst,dispreferenceFirst,-0.5668934240362812,,,(based on tag)
213,,DispreferenceFirst,dispreferenceFirst,-0.5136106831022085,,,(based on tag)
214,,DispreferenceFirst,dispreferenceFirst,-0.7751937984496124,,,(based on tag)
215,,DispreferenceFirst,dispreferenceFirst,-0.779423226812159,,,(based on tag)
216,,DispreferenceFirst,dispreferenceFirst,-0.6983240223463687,,,(based on tag)
217,,DispreferenceFirst,dispreferenceFirst,-0.8431703204047217,,,(based on tag)
218,,DispreferenceFirst,dispreferenceFirst,-0.8718395815170009,,,(based on tag)
219,,DispreferenceFirst,dispreferenceFirst,-0.8944543828264758,,,(based on tag)
220,,DispreferenceFirst,dispreferenceFirst,-0.4800768122899664,,,(based on tag)
221,,DispreferenceFirst,dispreferenceFirst,-0.5787037037037037,,,(based on tag)
222,,DispreferenceFirst,dispreferenceFirst,-0.4750593824228028,,,(based on tag)
223,,DispreferenceFirst,dispreferenceFirst,-0.5555555555555556,,,(based on tag)
224,,DispreferenceFirst,dispreferenceFirst,-0.8547008547008547,,,(based on tag)
225,,DispreferenceFirst,dispreferenceFirst,-0.693000693000693,,,(based on tag)
226,,DispreferenceFirst,dispreferenceFirst,-0.9337068160597572,,,(based on tag)
227,,DispreferenceFirst,dispreferenceFirst,-0.7662835249042146,,,(based on tag)
228,,DispreferenceFirst,dispreferenceFirst,-0.727802037845706,,,(based on tag)
229,,DispreferenceFirst,dispreferenceFirst,-43.47826086956522,,,(based on tag)
230,,DispreferenceFirst,dispreferenceFirst,-0.3250975292587776,,,(based on tag)
231,,DispreferenceFirst,dispreferenceFirst,-0.06805498843065197,,,(any response)
232,,DispreferenceFirst,dispreferenceFirst,-0.6925207756232687,,,(based on tag)
233,,DispreferenceFirst,dispreferenceFirst,-1.0683760683760684,,,(based on tag)
234,,DispreferenceFirst,dispreferenceFirst,-0.45871559633027525,,,(based on tag)
235,,DispreferenceFirst,dispreferenceFirst,-0.5020080321285141,,,(based on tag)
236,,DispreferenceFirst,dispreferenceFirst,-0.8944543828264758,,,(based on tag)
237,,DispreferenceFirst,dispreferenceFirst,-0.5396654074473827,,,(based on tag)
238,,DispreferenceFirst,dispreferenceFirst,-0.7923930269413629,,,(based on tag)
239,,DispreferenceFirst,dispreferenceFirst,-0.44583147570218457,,,(based on tag)
240,,DispreferenceFirst,dispreferenceFirst,-0.9149130832570905,,,(based on tag)
241,,DispreferenceFirst,dispreferenceFirst,-0.8382229673093042,,,(based on tag)
242,,DispreferenceFirst,dispreferenceFirst,-0.835421888053467,,,(based on tag)
243,,DispreferenceFirst,dispreferenceFirst,-0.5865102639296188,,,(based on tag)
244,,DispreferenceFirst,dispreferenceFirst,-0.4526935264825713,,,(based on tag)
245,,DispreferenceFirst,dispreferenceFirst,-0.5643340857787811,,,(based on tag)
246,,DispreferenceFirst,dispreferenceFirst,-0.8748906386701663,,,(based on tag)
247,,DispreferenceFirst,dispreferenceFirst,-0.8968609865470852,,,(based on tag)
248,,DispreferenceFirst,dispreferenceFirst,-0.9267840593141798,,,(based on tag)
249,,DispreferenceFirst,dispreferenceFirst,-1.001001001001001,,,(based on tag)
250,,DispreferenceFirst,dispreferenceFirst,-0.929368029739777,,,(based on tag)
251,,DispreferenceFirst,dispreferenceFirst,-0.8912655971479501,,,(based on tag)
252,,DispreferenceFirst,dispreferenceFirst,-1.0298661174047374,,,(based on tag)
253,,DispreferenceFirst,dispreferenceFirst,-0.5521811154058531,,,(based on tag)
254,,DispreferenceFirst,dispreferenceFirst,-0.916590284142988,,,(based on tag)
255,,DispreferenceFirst,dispreferenceFirst,-1.0582010582010581,,,(based on tag)
256,,DispreferenceFirst,dispreferenceFirst,-0.4526935264825713,,,(based on tag)
257,,DispreferenceFirst,dispreferenceFirst,-0.8554319931565441,,,(based on tag)
258,,DispreferenceFirst,dispreferenceFirst,-0.8787346221441125,,,(based on tag)
259,,DispreferenceFirst,dispreferenceFirst,-0.8453085376162299,,,(based on tag)
260,,DispreferenceFirst,dispreferenceFirst,-0.8880994671403197,,,(based on tag)
261,,DispreferenceFirst,dispreferenceFirst,-0.9433962264150944,,,(based on tag)
262,,DispreferenceFirst,dispreferenceFirst,-1.1198208286674132,,,(based on tag)
263,,DispreferenceFirst,dispreferenceFirst,-1.095290251916758,,,(based on tag)
264,,DispreferenceFirst,dispreferenceFirst,-0.4144218814753419,,,(any response)
265,,DispreferenceFirst,dispreferenceFirst,-0.7818608287724785,,,(based on tag)
266,,DispreferenceFirst,dispreferenceFirst,-0.8136696501220505,,,(based on tag)
267,,DispreferenceFirst,dispreferenceFirst,-1.0493179433368311,,,(based on tag)
268,,DispreferenceFirst,dispreferenceFirst,-1.0362694300518134,,,(based on tag)
269,,DispreferenceFirst,dispreferenceFirst,-0.966183574879227,,,(based on tag)
270,,DispreferenceFirst,dispreferenceFirst,-0.9727626459143969,,,(based on tag)
271,,DispreferenceFirst,dispreferenceFirst,-0.8149959250203749,,,(based on tag)
272,,DispreferenceFirst,dispreferenceFirst,-0.6476683937823834,,,(based on tag)
273,,DispreferenceFirst,dispreferenceFirst,-0.5313496280552603,,,(based on tag)
274,,DispreferenceFirst,dispreferenceFirst,-0.594883997620464,,,(based on tag)
275,,DispreferenceFirst,dispreferenceFirst,-0.7440476190476191,,,(based on tag)
276,,DispreferenceFirst,dispreferenceFirst,-1.037344398340249,,,(based on tag)
277,,DispreferenceFirst,dispreferenceFirst,-1.002004008016032,,,(based on tag)
278,,DispreferenceFirst,dispreferenceFirst,-0.5467468562055768,,,(based on tag)
279,,DispreferenceFirst,dispreferenceFirst,-0.8547008547008547,,,(based on tag)
280,,DispreferenceFirst,dispreferenceFirst,-0.7501875468867217,,,(based on tag)
281,,DispreferenceFirst,dispreferenceFirst,-0.6406149903907752,,,(based on tag)
282,,DispreferenceFirst,dispreferenceFirst,-1.1111111111111112,,,(based on tag)
283,,DispreferenceFirst,dispreferenceFirst,-0.9066183136899365,,,(based on tag)
284,,DispreferenceFirst,dispreferenceFirst,-0.8680555555555556,,,(based on tag)
285,,DispreferenceFirst,dispreferenceFirst,-0.9569377990430622,,,(based on tag)
286,,DispreferenceFirst,dispreferenceFirst,-0.9541984732824428,,,(based on tag)
287,,DispreferenceFirst,dispreferenceFirst,-0.7581501137225171,,,(based on tag)
288,,DispreferenceFirst,dispreferenceFirst,-0.8787346221441125,,,(based on tag)
289,,DispreferenceFirst,dispreferenceFirst,-0.8496176720475785,,,(based on tag)
290,,DispreferenceFirst,dispreferenceFirst,-0.8984725965858041,,,(based on tag)
291,,DispreferenceFirst,dispreferenceFirst,-0.8904719501335708,,,(based on tag)
292,,DispreferenceFirst,dispreferenceFirst,-0.9852216748768473,,,(based on tag)
293,,DispreferenceFirst,dispreferenceFirst,-0.9813542688910697,,,(based on tag)
294,,DispreferenceFirst,dispreferenceFirst,-0.6191950464396285,,,(based on tag)
295,,DispreferenceFirst,dispreferenceFirst,-0.8857395925597874,,,(based on tag)
296,,DispreferenceFirst,dispreferenceFirst,-0.9216589861751152,,,(based on tag)
297,,DispreferenceFirst,dispreferenceFirst,-0.39447731755424065,,,(any response)
298,,DispreferenceFirst,dispreferenceFirst,-1.0638297872340425,,,(based on tag)
299,,DispreferenceFirst,dispreferenceFirst,-0.8375209380234506,,,(based on tag)
300,,DispreferenceFirst,dispreferenceFirst,-0.9871668311944719,,,(based on tag)
301,,DispreferenceFirst,dispreferenceFirst,-0.8438818565400844,,,(based on tag)
302,,DispreferenceFirst,dispreferenceFirst,-0.9442870632672332,,,(based on tag)
303,,DispreferenceFirst,dispreferenceFirst,-1.050420168067227,,,(based on tag)
304,,DispreferenceFirst,dispreferenceFirst,-1.1123470522803114,,,(based on tag)
305,,DispreferenceFirst,dispreferenceFirst,-0.8787346221441125,,,(based on tag)
306,,DispreferenceFirst,dispreferenceFirst,-1.0362694300518134,,,(based on tag)
307,,DispreferenceFirst,dispreferenceFirst,-0.7457121551081283,,,(based on tag)
308,,DispreferenceFirst,dispreferenceFirst,-0.7727975270479135,,,(based on tag)
309,,DispreferenceFirst,dispreferenceFirst,-0.8613264427217916,,,(based on tag)
310,,DispreferenceFirst,dispreferenceFirst,-0.9950248756218906,,,(based on tag)
311,,DispreferenceFirst,dispreferenceFirst,-0.7524454477050414,,,(based on tag)
312,,DispreferenceFirst,dispreferenceFirst,-0.8431703204047217,,,(based on tag)
313,,DispreferenceFirst,dispreferenceFirst,-0.7593014426727411,,,(based on tag)
314,,DispreferenceFirst,dispreferenceFirst,-0.9319664492078286,,,(based on tag)
315,,DispreferenceFirst,dispreferenceFirst,-0.9140767824497258,,,(based on tag)
316,,DispreferenceFirst,dispreferenceFirst,-1.1037527593818985,,,(based on tag)
317,,DispreferenceFirst,dispreferenceFirst,-1.0582010582010581,,,(based on tag)
318,,DispreferenceFirst,dispreferenceFirst,-0.8561643835616438,,,(based on tag)
319,,DispreferenceFirst,dispreferenceFirst,-0.7027406886858749,,,(based on tag)
320,,DispreferenceFirst,dispreferenceFirst,-0.9689922480620154,,,(based on tag)
321,,DispreferenceFirst,dispreferenceFirst,-1.027749229188078,,,(based on tag)
322,,DispreferenceFirst,dispreferenceFirst,-0.9285051067780873,,,(based on tag)
323,,DispreferenceFirst,dispreferenceFirst,-0.9442870632672332,,,(based on tag)
324,,DispreferenceFirst,dispreferenceFirst,-0.9389671361502347,,,(based on tag)
325,,DispreferenceFirst,dispreferenceFirst,-0.7993605115907274,,,(based on tag)
326,,DispreferenceFirst,dispreferenceFirst,-0.8818342151675485,,,(based on tag)
327,,DispreferenceFirst,dispreferenceFirst,-0.922509225092251,,,(based on tag)
328,,DispreferenceFirst,dispreferenceFirst,-0.9587727708533078,,,(based on tag)
329,,DispreferenceFirst,dispreferenceFirst,-1.0080645161290323,,,(based on tag)
330,,DispreferenceFirst,dispreferenceFirst,-0.20571898786257972,,,(any response)
331,,DispreferenceFirst,dispreferenceFirst_inverse,-0.5249343832020997,,,(based on tag)
332,,DispreferenceFirst,dispreferenceFirst_inverse,-1.0615711252653928,,,(based on tag)
333,,DispreferenceFirst,dispreferenceFirst_inverse,-1.2224938875305624,,,(based on tag)
334,,DispreferenceFirst,dispreferenceFirst_inverse,-0.9442870632672332,,,(based on tag)
335,,DispreferenceFirst,dispreferenceFirst_inverse,-1.1185682326621924,,,(based on tag)
336,,DispreferenceFirst,dispreferenceFirst_inverse,-1.0526315789473684,,,(based on tag)
337,,DispreferenceFirst,dispreferenceFirst_inverse,-1.0582010582010581,,,(based on tag)
338,,DispreferenceFirst,dispreferenceFirst_inverse,-0.9950248756218906,,,(based on tag)
339,,DispreferenceFirst,dispreferenceFirst_inverse,-0.8591065292096219,,,(based on tag)
340,,DispreferenceFirst,dispreferenceFirst_inverse,-1.2919896640826873,,,(based on tag)
341,,DispreferenceFirst,dispreferenceFirst_inverse,-0.7117437722419929,,,(based on tag)
342,,DispreferenceFirst,dispreferenceFirst_inverse,-1.0351966873706004,,,(based on tag)
343,,DispreferenceFirst,dispreferenceFirst_inverse,-0.7874015748031497,,,(based on tag)
344,,DispreferenceFirst,dispreferenceFirst_inverse,-0.46490004649000466,,,(based on tag)
345,,DispreferenceFirst,dispreferenceFirst_inverse,-0.9033423667570009,,,(based on tag)
346,,DispreferenceFirst,dispreferenceFirst_inverse,-0.9115770282588879,,,(based on tag)
347,,DispreferenceFirst,dispreferenceFirst_inverse,-0.746268656716418,,,(based on tag)
348,,DispreferenceFirst,dispreferenceFirst_inverse,-1.0493179433368311,,,(based on tag)
349,,DispreferenceFirst,dispreferenceFirst_inverse,-1.2578616352201257,,,(based on tag)
350,,DispreferenceFirst,dispreferenceFirst_inverse,-0.9596928982725528,,,(based on tag)
351,,DispreferenceFirst,dispreferenceFirst_inverse,-0.5192107995846313,,,(based on tag)
352,,DispreferenceFirst,dispreferenceFirst_inverse,-0.6693440428380187,,,(based on tag)
353,,DispreferenceFirst,dispreferenceFirst_inverse,-0.5988023952095808,,,(based on tag)
354,,DispreferenceFirst,dispreferenceFirst_inverse,-0.6031363088057901,,,(based on tag)
355,,DispreferenceFirst,dispreferenceFirst_inverse,-0.5027652086475616,,,(based on tag)
356,,DispreferenceFirst,dispreferenceFirst_inverse,-0.7558578987150416,,,(based on tag)
357,,DispreferenceFirst,dispreferenceFirst_inverse,-0.4859086491739553,,,(based on tag)
358,,DispreferenceFirst,dispreferenceFirst_inverse,-0.6493506493506493,,,(based on tag)
359,,DispreferenceFirst,dispreferenceFirst_inverse,-0.7082152974504249,,,(based on tag)
360,,DispreferenceFirst,dispreferenceFirst_inverse,-0.8077544426494345,,,(based on tag)
361,,DispreferenceFirst,dispreferenceFirst_inverse,-0.8257638315441783,,,(based on tag)
362,,DispreferenceFirst,dispreferenceFirst_inverse,-0.9487666034155597,,,(based on tag)
363,,DispreferenceFirst,dispreferenceFirst_inverse,-0.7581501137225171,,,(based on tag)
364,,DispreferenceFirst,dispreferenceFirst_inverse,-0.8149959250203749,,,(based on tag)
365,,DispreferenceFirst,dispreferenceFirst_inverse,-0.7911392405063291,,,(based on tag)
366,,DispreferenceFirst,dispreferenceFirst_inverse,-0.8496176720475785,,,(based on tag)
367,,DispreferenceFirst,dispreferenceFirst_inverse,-0.7012622720897616,,,(based on tag)
368,,DispreferenceFirst,dispreferenceFirst_inverse,-0.8525149190110827,,,(based on tag)
369,,DispreferenceFirst,dispreferenceFirst_inverse,-0.9775171065493646,,,(based on tag)
370,,DispreferenceFirst,dispreferenceFirst_inverse,-0.5491488193300385,,,(based on tag)
371,,DispreferenceFirst,dispreferenceFirst_inverse,-0.5197505197505198,,,(based on tag)
372,,DispreferenceFirst,dispreferenceFirst_inverse,-0.49776007964161273,,,(based on tag)
373,,DispreferenceFirst,dispreferenceFirst_inverse,-0.6215040397762586,,,(based on tag)
374,,DispreferenceFirst,dispreferenceFirst_inverse,-0.8756567425569177,,,(based on tag)
375,,DispreferenceFirst,dispreferenceFirst_inverse,-0.7518796992481203,,,(based on tag)
376,,DispreferenceFirst,dispreferenceFirst_inverse,-0.7267441860465116,,,(based on tag)
377,,DispreferenceFirst,dispreferenceFirst_inverse,-0.384172109104879,,,(based on tag)
378,,DispreferenceFirst,dispreferenceFirst_inverse,-0.5467468562055768,,,(based on tag)
379,,DispreferenceFirst,dispreferenceFirst_inverse,-0.778816199376947,,,(based on tag)
380,,DispreferenceFirst,dispreferenceFirst_inverse,-0.8278145695364238,,,(based on tag)
381,,DispreferenceFirst,dispreferenceFirst_inverse,-0.5012531328320802,,,(based on tag)
382,,DispreferenceFirst,dispreferenceFirst_inverse,-0.8936550491510277,,,(based on tag)
383,,DispreferenceFirst,dispreferenceFirst_inverse,-0.08675284115554785,,,(any response)
384,,DispreferenceFirst,dispreferenceFirst_inverse,-0.5824111822947,,,(based on tag)
385,,DispreferenceFirst,dispreferenceFirst_inverse,-0.6958942240779401,,,(based on tag)
386,,DispreferenceFirst,dispreferenceFirst_inverse,-1.001001001001001,,,(based on tag)
387,,DispreferenceFirst,dispreferenceFirst_inverse,-0.6373486297004461,,,(based on tag)
388,,DispreferenceFirst,dispreferenceFirst_inverse,-1.0131712259371835,,,(based on tag)
389,,DispreferenceFirst,dispreferenceFirst_inverse,-0.5141388174807198,,,(based on tag)
390,,DispreferenceFirst,dispreferenceFirst_inverse,-0.7002801120448179,,,(based on tag)
391,,DispreferenceFirst,dispreferenceFirst_inverse,-0.9328358208955224,,,(based on tag)
392,,DispreferenceFirst,dispreferenceFirst_inverse,-0.7342143906020558,,,(based on tag)
393,,DispreferenceFirst,dispreferenceFirst_inverse,-0.6788866259334692,,,(based on tag)
394,,DispreferenceFirst,dispreferenceFirst_inverse,-0.6944444444444444,,,(based on tag)
395,,DispreferenceFirst,dispreferenceFirst_inverse,-0.8826125330979699,,,(based on tag)
396,,DispreferenceFirst,dispreferenceFirst_inverse,-0.949667616334283,,,(based on tag)
397,,DispreferenceFirst,dispreferenceFirst_inverse,-0.7407407407407407,,,(based on tag)
398,,DispreferenceFirst,dispreferenceFirst_inverse,-0.7733952049497294,,,(based on tag)
399,,DispreferenceFirst,dispreferenceFirst_inverse,-0.6218905472636815,,,(based on tag)
400,,DispreferenceFirst,dispreferenceFirst_inverse,-0.9578544061302682,,,(based on tag)
401,,DispreferenceFirst,dispreferenceFirst_inverse,-0.6729475100942126,,,(based on tag)
402,,DispreferenceFirst,dispreferenceFirst_inverse,-0.7199424046076314,,,(based on tag)
403,,DispreferenceFirst,dispreferenceFirst_inverse,-0.5534034311012729,,,(based on tag)
404,,DispreferenceFirst,dispreferenceFirst_inverse,-0.8361204013377926,,,(based on tag)
405,,DispreferenceFirst,dispreferenceFirst_inverse,-1.0615711252653928,,,(based on tag)
406,,DispreferenceFirst,dispreferenceFirst_inverse,-0.9354536950420954,,,(based on tag)
407,,DispreferenceFirst,dispreferenceFirst_inverse,-0.6540222367560498,,,(based on tag)
408,,DispreferenceFirst,dispreferenceFirst_inverse,-0.6112469437652812,,,(based on tag)
409,,DispreferenceFirst,dispreferenceFirst_inverse,-0.7739938080495357,,,(based on tag)
410,,DispreferenceFirst,dispreferenceFirst_inverse,-0.7246376811594203,,,(based on tag)
411,,DispreferenceFirst,dispreferenceFirst_inverse,-0.7751937984496124,,,(based on tag)
412,,DispreferenceFirst,dispreferenceFirst_inverse,-0.9746588693957114,,,(based on tag)
413,,DispreferenceFirst,dispreferenceFirst_inverse,-0.7092198581560284,,,(based on tag)
414,,DispreferenceFirst,dispreferenceFirst_inverse,-0.6027727546714888,,,(based on tag)
415,,DispreferenceFirst,dispreferenceFirst_inverse,-0.6954102920723226,,,(based on tag)
416,,DispreferenceFirst,dispreferenceFirst_inverse,-0.12941633234114144,,,(any response)
417,,DispreferenceFirst,dispreferenceFirst_inverse,-0.7604562737642585,,,(based on tag)
418,,DispreferenceFirst,dispreferenceFirst_inverse,-0.5564830272676683,,,(based on tag)
419,,DispreferenceFirst,dispreferenceFirst_inverse,-0.9737098344693281,,,(based on tag)
420,,DispreferenceFirst,dispreferenceFirst_inverse,-0.7342143906020558,,,(based on tag)
421,,DispreferenceFirst,dispreferenceFirst_inverse,-0.8818342151675485,,,(based on tag)
422,,DispreferenceFirst,dispreferenceFirst_inverse,-0.9363295880149812,,,(based on tag)
423,,DispreferenceFirst,dispreferenceFirst_inverse,-0.7385524372230429,,,(based on tag)
424,,DispreferenceFirst,dispreferenceFirst_inverse,-0.8968609865470852,,,(based on tag)
425,,DispreferenceFirst,dispreferenceFirst_inverse,-0.7163323782234957,,,(based on tag)
426,,DispreferenceFirst,dispreferenceFirst_inverse,-0.6345177664974619,,,(based on tag)
427,,DispreferenceFirst,dispreferenceFirst_inverse,-0.6622516556291391,,,(based on tag)
428,,DispreferenceFirst,dispreferenceFirst_inverse,-0.6373486297004461,,,(based on tag)
429,,DispreferenceFirst,dispreferenceFirst_inverse,-0.8488964346349746,,,(based on tag)
430,,DispreferenceFirst,dispreferenceFirst_inverse,-0.7057163020465773,,,(based on tag)
431,,DispreferenceFirst,dispreferenceFirst_inverse,-0.6993006993006993,,,(based on tag)
432,,DispreferenceFirst,dispreferenceFirst_inverse,-0.7256894049346879,,,(based on tag)
433,,DispreferenceFirst,dispreferenceFirst_inverse,-0.8503401360544217,,,(based on tag)
434,,DispreferenceFirst,dispreferenceFirst_inverse,-0.697350069735007,,,(based on tag)
435,,DispreferenceFirst,dispreferenceFirst_inverse,-0.5219206680584552,,,(based on tag)
436,,DispreferenceFirst,dispreferenceFirst_inverse,-0.6720430107526881,,,(based on tag)
437,,DispreferenceFirst,dispreferenceFirst_inverse,-0.7256894049346879,,,(based on tag)
438,,DispreferenceFirst,dispreferenceFirst_inverse,-0.7002801120448179,,,(based on tag)
439,,DispreferenceFirst,dispreferenceFirst_inverse,-0.5367686527106817,,,(based on tag)
440,,DispreferenceFirst,dispreferenceFirst_inverse,-0.5970149253731343,,,(based on tag)
441,,DispreferenceFirst,dispreferenceFirst_inverse,-0.8726003490401396,,,(based on tag)
442,,DispreferenceFirst,dispreferenceFirst_inverse,-0.7674597083653109,,,(based on tag)
443,,DispreferenceFirst,dispreferenceFirst_inverse,-0.6574621959237343,,,(based on tag)
444,,DispreferenceFirst,dispreferenceFirst_inverse,-0.5238344683080147,,,(based on tag)
445,,DispreferenceFirst,dispreferenceFirst_inverse,-0.5668934240362812,,,(based on tag)
446,,DispreferenceFirst,dispreferenceFirst_inverse,-1.001001001001001,,,(based on tag)
447,,DispreferenceFirst,dispreferenceFirst_inverse,-0.639386189258312,,,(based on tag)
448,,DispreferenceFirst,dispreferenceFirst_inverse,-1.0214504596527068,,,(based on tag)
449,,DispreferenceFirst,dispreferenceFirst_inverse,-0.14029180695847362,,,(any response)
450,,DispreferenceFirst,dispreferenceFirst_inverse,-0.8960573476702509,,,(based on tag)
451,,DispreferenceFirst,dispreferenceFirst_inverse,-0.8271298593879239,,,(based on tag)
452,,DispreferenceFirst,dispreferenceFirst_inverse,-0.9699321047526673,,,(based on tag)
453,,DispreferenceFirst,dispreferenceFirst_inverse,-0.9009009009009009,,,(based on tag)
454,,DispreferenceFirst,dispreferenceFirst_inverse,-0.9689922480620154,,,(based on tag)
455,,DispreferenceFirst,dispreferenceFirst_inverse,-0.9319664492078286,,,(based on tag)
456,,DispreferenceFirst,dispreferenceFirst_inverse,-0.7320644216691069,,,(based on tag)
457,,DispreferenceFirst,dispreferenceFirst_inverse,-0.8210180623973727,,,(based on tag)
458,,DispreferenceFirst,dispreferenceFirst_inverse,-0.7062146892655368,,,(based on tag)
459,,DispreferenceFirst,dispreferenceFirst_inverse,-0.929368029739777,,,(based on tag)
460,,DispreferenceFirst,dispreferenceFirst_inverse,-0.9242144177449169,,,(based on tag)
461,,DispreferenceFirst,dispreferenceFirst_inverse,-0.8453085376162299,,,(based on tag)
462,,DispreferenceFirst,dispreferenceFirst_inverse,-0.916590284142988,,,(based on tag)
463,,DispreferenceFirst,dispreferenceFirst_inverse,-0.757002271006813,,,(based on tag)
464,,DispreferenceFirst,dispreferenceFirst_inverse,-0.7923930269413629,,,(based on tag)
465,,DispreferenceFirst,dispreferenceFirst_inverse,-0.7002801120448179,,,(based on tag)
466,,DispreferenceFirst,dispreferenceFirst_inverse,-0.819672131147541,,,(based on tag)
467,,DispreferenceFirst,dispreferenceFirst_inverse,-0.8431703204047217,,,(based on tag)
468,,DispreferenceFirst,dispreferenceFirst_inverse,-1.0695187165775402,,,(based on tag)
469,,DispreferenceFirst,dispreferenceFirst_inverse,-0.8680555555555556,,,(based on tag)
470,,DispreferenceFirst,dispreferenceFirst_inverse,-0.7112375533428165,,,(based on tag)
471,,DispreferenceFirst,dispreferenceFirst_inverse,-0.9328358208955224,,,(based on tag)
472,,DispreferenceFirst,dispreferenceFirst_inverse,-0.6527415143603134,,,(based on tag)
473,,DispreferenceFirst,dispreferenceFirst_inverse,-0.832639467110741,,,(based on tag)
474,,DispreferenceFirst,dispreferenceFirst_inverse,-0.8019246190858059,,,(based on tag)
475,,DispreferenceFirst,dispreferenceFirst_inverse,-1.0245901639344261,,,(based on tag)
476,,DispreferenceFirst,dispreferenceFirst_inverse,-0.8517887563884157,,,(based on tag)
477,,DispreferenceFirst,dispreferenceFirst_inverse,-0.832639467110741,,,(based on tag)
478,,DispreferenceFirst,dispreferenceFirst_inverse,-0.9891196834817013,,,(based on tag)
479,,DispreferenceFirst,dispreferenceFirst_inverse,-0.8445945945945946,,,(based on tag)
480,,DispreferenceFirst,dispreferenceFirst_inverse,-1.0384215991692627,,,(based on tag)
481,,DispreferenceFirst,dispreferenceFirst_inverse,-0.8305647840531561,,,(based on tag)
482,,DispreferenceFirst,dispreferenceFirst_inverse,-0.1699524133242692,,,(any response)
483,,DispreferenceFirst,dispreferenceFirst_inverse,-0.6906077348066298,,,(based on tag)
484,,DispreferenceFirst,dispreferenceFirst_inverse,-1.0427528675703859,,,(based on tag)
485,,DispreferenceFirst,dispreferenceFirst_inverse,-1.0405827263267429,,,(based on tag)
486,,DispreferenceFirst,dispreferenceFirst_inverse,-0.8920606601248885,,,(based on tag)
487,,DispreferenceFirst,dispreferenceFirst_inverse,-0.7627765064836003,,,(based on tag)
488,,DispreferenceFirst,dispreferenceFirst_inverse,-0.6157635467980296,,,(based on tag)
489,,DispreferenceFirst,dispreferenceFirst_inverse,-0.970873786407767,,,(based on tag)
490,,DispreferenceFirst,dispreferenceFirst_inverse,-0.8904719501335708,,,(based on tag)
491,,DispreferenceFirst,dispreferenceFirst_inverse,-0.56657223796034,,,(based on tag)
492,,DispreferenceFirst,dispreferenceFirst_inverse,-0.651890482398957,,,(based on tag)
493,,DispreferenceFirst,dispreferenceFirst_inverse,-0.44543429844098,,,(based on tag)
494,,DispreferenceFirst,dispreferenceFirst_inverse,-0.3380662609871535,,,(based on tag)
495,,DispreferenceFirst,dispreferenceFirst_inverse,-0.6309148264984227,,,(based on tag)
496,,DispreferenceFirst,dispreferenceFirst_inverse,-0.7178750897343862,,,(based on tag)
497,,DispreferenceFirst,dispreferenceFirst_inverse,-0.6309148264984227,,,(based on tag)
498,,DispreferenceFirst,dispreferenceFirst_inverse,-0.3453038674033149,,,(based on tag)
499,,DispreferenceFirst,dispreferenceFirst_inverse,-0.6305170239596469,,,(based on tag)
500,,DispreferenceFirst,dispreferenceFirst_inverse,-0.7980845969672785,,,(based on tag)
501,,DispreferenceFirst,dispreferenceFirst_inverse,-0.9285051067780873,,,(based on tag)
502,,DispreferenceFirst,dispreferenceFirst_inverse,-0.56657223796034,,,(based on tag)
503,,DispreferenceFirst,dispreferenceFirst_inverse,-0.7230657989877078,,,(based on tag)
504,,DispreferenceFirst,dispreferenceFirst_inverse,-0.6097560975609756,,,(based on tag)
505,,DispreferenceFirst,dispreferenceFirst_inverse,-0.7380073800738007,,,(based on tag)
506,,DispreferenceFirst,dispreferenceFirst_inverse,-0.7032348804500703,,,(based on tag)
507,,DispreferenceFirst,dispreferenceFirst_inverse,-0.7704160246533128,,,(based on tag)
508,,DispreferenceFirst,dispreferenceFirst_inverse,-1.0729613733905579,,,(based on tag)
509,,DispreferenceFirst,dispreferenceFirst_inverse,-0.6747638326585695,,,(based on tag)
510,,DispreferenceFirst,dispreferenceFirst_inverse,-1.0615711252653928,,,(based on tag)
511,,DispreferenceFirst,dispreferenceFirst_inverse,-0.6397952655150352,,,(based on tag)
512,,DispreferenceFirst,dispreferenceFirst_inverse,-0.8960573476702509,,,(based on tag)
513,,DispreferenceFirst,dispreferenceFirst_inverse,-0.7627765064836003,,,(based on tag)
514,,DispreferenceFirst,dispreferenceFirst_inverse,-0.8756567425569177,,,(based on tag)
515,,DispreferenceFirst,dispreferenceFirst_inverse,-0.1775883502042266,,,(any response)
516,,DispreferenceFirst,dispreferenceFirst_inverse,-0.0810307106393323,,,(any response)
517,,DispreferenceFirst,dispreferenceFirst_inverse,-0.14885382554331647,,,(any response)
518,,DispreferenceFirst,dispreferenceFirst_inverse,-0.15186028853454822,,,(any response)
519,,DispreferenceFirst,dispreferenceFirst_inverse,-0.1392369813422445,,,(any response)
520,,DispreferenceFirst,dispreferenceFirst_inverse,-0.11117287381878821,,,(any response)
521,,DispreferenceFirst,dispreferenceFirst,-0.07589556769884638,,,(based on tag)
522,,DispreferenceFirst,dispreferenceFirst,-0.25621316935690497,,,(based on tag)
523,,DispreferenceFirst,dispreferenceFirst,-0.44385264092321347,,,(based on tag)
524,,DispreferenceFirst,dispreferenceFirst,-0.44385264092321347,,,(based on tag)
525,,DispreferenceFirst,dispreferenceFirst,-0.397456279809221,,,(based on tag)
526,,DispreferenceFirst,dispreferenceFirst,-0.5743825387708213,,,(based on tag)
527,,DispreferenceFirst,dispreferenceFirst,-0.5966587112171837,,,(based on tag)
528,,DispreferenceFirst,dispreferenceFirst,-0.5063291139240507,,,(based on tag)
529,,DispreferenceFirst,dispreferenceFirst,-0.6385696040868455,,,(based on tag)
530,,DispreferenceFirst,dispreferenceFirst,-0.6997900629811057,,,(based on tag)
531,,DispreferenceFirst,dispreferenceFirst,-0.8210180623973727,,,(based on tag)
532,,DispreferenceFirst,dispreferenceFirst,-0.7733952049497294,,,(based on tag)
533,,DispreferenceFirst,dispreferenceFirst,-0.7283321194464676,,,(based on tag)
534,,DispreferenceFirst,dispreferenceFirst,-0.727802037845706,,,(based on tag)
535,,DispreferenceFirst,dispreferenceFirst,-0.5941770647653001,,,(based on tag)
536,,DispreferenceFirst,dispreferenceFirst,-0.5099439061703213,,,(based on tag)
537,,DispreferenceFirst,dispreferenceFirst,-0.5055611729019212,,,(based on tag)
538,,DispreferenceFirst,dispreferenceFirst,-0.6261740763932373,,,(based on tag)
539,,DispreferenceFirst,dispreferenceFirst,-0.7122507122507122,,,(based on tag)
540,,DispreferenceFirst,dispreferenceFirst,-0.7189072609633357,,,(based on tag)
541,,DispreferenceFirst,dispreferenceFirst,-0.6868131868131868,,,(based on tag)
542,,DispreferenceFirst,dispreferenceFirst,-0.4357298474945534,,,(based on tag)
543,,DispreferenceFirst,dispreferenceFirst,-0.4142502071251036,,,(based on tag)
544,,DispreferenceFirst,dispreferenceFirst,-0.3397893306150187,,,(based on tag)
545,,DispreferenceFirst,dispreferenceFirst,-0.8210180623973727,,,(based on tag)
546,,DispreferenceFirst,dispreferenceFirst,-0.6246096189881324,,,(based on tag)
547,,DispreferenceFirst,dispreferenceFirst,-0.382262996941896,,,(based on tag)
548,,DispreferenceFirst,dispreferenceFirst,-0.5411255411255411,,,(based on tag)
549,,DispreferenceFirst,dispreferenceFirst,-0.7704160246533128,,,(based on tag)
550,,DispreferenceFirst,dispreferenceFirst,-0.48053820278712156,,,(based on tag)
551,,DispreferenceFirst,dispreferenceFirst,-0.7955449482895783,,,(based on tag)
552,,DispreferenceFirst,dispreferenceFirst,-0.7052186177715092,,,(based on tag)
553,,DispreferenceFirst,dispreferenceFirst,-0.3137747097583935,,,(any response)
554,,DispreferenceFirst,dispreferenceFirst,-0.4972650422675286,,,(based on tag)
555,,DispreferenceFirst,dispreferenceFirst,-0.5485463521667581,,,(based on tag)
556,,DispreferenceFirst,dispreferenceFirst,-0.4734848484848485,,,(based on tag)
557,,DispreferenceFirst,dispreferenceFirst,-0.8710801393728222,,,(based on tag)
558,,DispreferenceFirst,dispreferenceFirst,-0.9372071227741331,,,(based on tag)
559,,DispreferenceFirst,dispreferenceFirst,-0.9302325581395349,,,(based on tag)
560,,DispreferenceFirst,dispreferenceFirst,-0.8688097306689835,,,(based on tag)
561,,DispreferenceFirst,dispreferenceFirst,-0.7440476190476191,,,(based on tag)
562,,DispreferenceFirst,dispreferenceFirst,-0.831946755407654,,,(based on tag)
563,,DispreferenceFirst,dispreferenceFirst,-0.8382229673093042,,,(based on tag)
564,,DispreferenceFirst,dispreferenceFirst,-0.4180602006688963,,,(based on tag)
565,,DispreferenceFirst,dispreferenceFirst,-0.7898894154818326,,,(based on tag)
566,,DispreferenceFirst,dispreferenceFirst,-0.8795074758135444,,,(based on tag)
567,,DispreferenceFirst,dispreferenceFirst,-0.9199632014719411,,,(based on tag)
568,,DispreferenceFirst,dispreferenceFirst,-0.8077544426494345,,,(based on tag)
569,,DispreferenceFirst,dispreferenceFirst,-0.9523809523809523,,,(based on tag)
570,,DispreferenceFirst,dispreferenceFirst,-0.8361204013377926,,,(based on tag)
571,,DispreferenceFirst,dispreferenceFirst,-0.7267441860465116,,,(based on tag)
572,,DispreferenceFirst,dispreferenceFirst,-0.7194244604316546,,,(based on tag)
573,,DispreferenceFirst,dispreferenceFirst,-0.693000693000693,,,(based on tag)
574,,DispreferenceFirst,dispreferenceFirst,-0.4780114722753346,,,(based on tag)
575,,DispreferenceFirst,dispreferenceFirst,-0.7662835249042146,,,(based on tag)
576,,DispreferenceFirst,dispreferenceFirst,-0.5899705014749262,,,(based on tag)
577,,DispreferenceFirst,dispreferenceFirst,-0.8726003490401396,,,(based on tag)
578,,DispreferenceFirst,dispreferenceFirst,-0.514668039114771,,,(based on tag)
579,,DispreferenceFirst,dispreferenceFirst,-0.7776049766718507,,,(based on tag)
580,,DispreferenceFirst,dispreferenceFirst,-0.7293946024799417,,,(based on tag)
581,,DispreferenceFirst,dispreferenceFirst,-0.8771929824561403,,,(based on tag)
582,,DispreferenceFirst,dispreferenceFirst,-0.8090614886731392,,,(based on tag)
583,,DispreferenceFirst,dispreferenceFirst,-0.8688097306689835,,,(based on tag)
584,,DispreferenceFirst,dispreferenceFirst,-0.6257822277847309,,,(based on tag)
585,,DispreferenceFirst,dispreferenceFirst,-0.700770847932726,,,(based on tag)
586,,DispreferenceFirst,dispreferenceFirst,-0.3835826620636747,,,(any response)
587,,DispreferenceFirst,dispreferenceFirst,-0.4004805766920304,,,(based on tag)
588,,DispreferenceFirst,dispreferenceFirst,-0.9319664492078286,,,(based on tag)
589,,DispreferenceFirst,dispreferenceFirst,-0.7874015748031497,,,(based on tag)
590,,DispreferenceFirst,dispreferenceFirst,-0.5194805194805194,,,(based on tag)
591,,DispreferenceFirst,dispreferenceFirst,-0.7199424046076314,,,(based on tag)
592,,DispreferenceFirst,dispreferenceFirst,-1.0245901639344261,,,(based on tag)
593,,DispreferenceFirst,dispreferenceFirst,-0.8163265306122449,,,(based on tag)
594,,DispreferenceFirst,dispreferenceFirst,-0.7861635220125787,,,(based on tag)
595,,DispreferenceFirst,dispreferenceFirst,-0.8525149190110827,,,(based on tag)
596,,DispreferenceFirst,dispreferenceFirst,-0.819672131147541,,,(based on tag)
597,,DispreferenceFirst,dispreferenceFirst,-0.6978367062107467,,,(based on tag)
598,,DispreferenceFirst,dispreferenceFirst,-0.7898894154818326,,,(based on tag)
599,,DispreferenceFirst,dispreferenceFirst,-0.7112375533428165,,,(based on tag)
600,,DispreferenceFirst,dispreferenceFirst,-0.526592943654555,,,(based on tag)
601,,DispreferenceFirst,dispreferenceFirst,-0.7077140835102619,,,(based on tag)
602,,DispreferenceFirst,dispreferenceFirst,-0.9149130832570905,,,(based on tag)
603,,DispreferenceFirst,dispreferenceFirst,-0.6887052341597796,,,(based on tag)
604,,DispreferenceFirst,dispreferenceFirst,-0.6468305304010349,,,(based on tag)
605,,DispreferenceFirst,dispreferenceFirst,-0.38955979742890534,,,(based on tag)
606,,DispreferenceFirst,dispreferenceFirst,-0.6157635467980296,,,(based on tag)
607,,DispreferenceFirst,dispreferenceFirst,-0.6273525721455459,,,(based on tag)
608,,DispreferenceFirst,dispreferenceFirst,-0.7027406886858749,,,(based on tag)
609,,DispreferenceFirst,dispreferenceFirst,-0.9433962264150944,,,(based on tag)
610,,DispreferenceFirst,dispreferenceFirst,-0.702247191011236,,,(based on tag)
611,,DispreferenceFirst,dispreferenceFirst,-0.7686395080707148,,,(based on tag)
612,,DispreferenceFirst,dispreferenceFirst,-0.8695652173913043,,,(based on tag)
613,,DispreferenceFirst,dispreferenceFirst,-0.8312551953449709,,,(based on tag)
614,,DispreferenceFirst,dispreferenceFirst,-0.4982561036372696,,,(based on tag)
615,,DispreferenceFirst,dispreferenceFirst,-0.4083299305839118,,,(based on tag)
616,,DispreferenceFirst,dispreferenceFirst,-0.9124087591240876,,,(based on tag)
617,,DispreferenceFirst,dispreferenceFirst,-0.8779631255487269,,,(based on tag)
618,,DispreferenceFirst,dispreferenceFirst,-0.6397952655150352,,,(based on tag)
619,,DispreferenceFirst,dispreferenceFirst,-0.3566333808844508,,,(any response)
620,,DispreferenceFirst,dispreferenceFirst,-0.5341880341880342,,,(based on tag)
621,,DispreferenceFirst,dispreferenceFirst,-0.8368200836820083,,,(based on tag)
622,,DispreferenceFirst,dispreferenceFirst,-0.6045949214026602,,,(based on tag)
623,,DispreferenceFirst,dispreferenceFirst,-0.7961783439490446,,,(based on tag)
624,,DispreferenceFirst,dispreferenceFirst,-0.5973715651135006,,,(based on tag)
625,,DispreferenceFirst,dispreferenceFirst,-0.4314063848144953,,,(based on tag)
626,,DispreferenceFirst,dispreferenceFirst,-0.5473453749315819,,,(based on tag)
627,,DispreferenceFirst,dispreferenceFirst,-0.2892681515765114,,,(based on tag)
628,,DispreferenceFirst,dispreferenceFirst,-0.5747126436781609,,,(based on tag)
629,,DispreferenceFirst,dispreferenceFirst,-0.601684717208183,,,(based on tag)
630,,DispreferenceFirst,dispreferenceFirst,-0.7067137809187279,,,(based on tag)
631,,DispreferenceFirst,dispreferenceFirst,-0.5530973451327433,,,(based on tag)
632,,DispreferenceFirst,dispreferenceFirst,-0.5977286312014346,,,(based on tag)
633,,DispreferenceFirst,dispreferenceFirst,-0.6954102920723226,,,(based on tag)
634,,DispreferenceFirst,dispreferenceFirst,-0.5027652086475616,,,(based on tag)
635,,DispreferenceFirst,dispreferenceFirst,-1.037344398340249,,,(based on tag)
636,,DispreferenceFirst,dispreferenceFirst,-0.8849557522123894,,,(based on tag)
637,,DispreferenceFirst,dispreferenceFirst,-0.7905138339920948,,,(based on tag)
638,,DispreferenceFirst,dispreferenceFirst,-1.016260162601626,,,(based on tag)
639,,DispreferenceFirst,dispreferenceFirst,-0.8203445447087777,,,(based on tag)
640,,DispreferenceFirst,dispreferenceFirst,-0.44228217602830605,,,(based on tag)
641,,DispreferenceFirst,dispreferenceFirst,-0.3570153516601214,,,(based on tag)
642,,DispreferenceFirst,dispreferenceFirst,-0.7457121551081283,,,(based on tag)
643,,DispreferenceFirst,dispreferenceFirst,-1.0869565217391304,,,(based on tag)
644,,DispreferenceFirst,dispreferenceFirst,-0.8368200836820083,,,(based on tag)
645,,DispreferenceFirst,dispreferenceFirst,-0.8880994671403197,,,(based on tag)
646,,DispreferenceFirst,dispreferenceFirst,-0.9025270758122743,,,(based on tag)
647,,DispreferenceFirst,dispreferenceFirst,-0.8650519031141869,,,(based on tag)
648,,DispreferenceFirst,dispreferenceFirst,-0.9354536950420954,,,(based on tag)
649,,DispreferenceFirst,dispreferenceFirst,-0.6480881399870383,,,(based on tag)
650,,DispreferenceFirst,dispreferenceFirst,-0.6788866259334692,,,(based on tag)
651,,DispreferenceFirst,dispreferenceFirst,-0.7107320540156361,,,(based on tag)
652,,DispreferenceFirst,dispreferenceFirst,-0.35880875493362036,,,(any response)
653,,DispreferenceFirst,dispreferenceFirst,-0.6724949562878278,,,(based on tag)
654,,DispreferenceFirst,dispreferenceFirst,-0.856898029134533,,,(based on tag)
655,,DispreferenceFirst,dispreferenceFirst,-0.9478672985781991,,,(based on tag)
656,,DispreferenceFirst,dispreferenceFirst,-0.6925207756232687,,,(based on tag)
657,,DispreferenceFirst,dispreferenceFirst,-0.7824726134585289,,,(based on tag)
658,,DispreferenceFirst,dispreferenceFirst,-0.8156606851549756,,,(based on tag)
659,,DispreferenceFirst,dispreferenceFirst,-0.8110300081103001,,,(based on tag)
660,,DispreferenceFirst,dispreferenceFirst,-0.8833922261484098,,,(based on tag)
661,,DispreferenceFirst,dispreferenceFirst,-0.7390983000739099,,,(based on tag)
662,,DispreferenceFirst,dispreferenceFirst,-0.33557046979865773,,,(based on tag)
663,,DispreferenceFirst,dispreferenceFirst,-0.4568296025582458,,,(based on tag)
664,,DispreferenceFirst,dispreferenceFirst,-0.38955979742890534,,,(based on tag)
665,,DispreferenceFirst,dispreferenceFirst,-0.17370158068438424,,,(based on tag)
666,,DispreferenceFirst,dispreferenceFirst,-0.8748906386701663,,,(based on tag)
667,,DispreferenceFirst,dispreferenceFirst,-0.8695652173913043,,,(based on tag)
668,,DispreferenceFirst,dispreferenceFirst,-0.9920634920634921,,,(based on tag)
669,,DispreferenceFirst,dispreferenceFirst,-0.8382229673093042,,,(based on tag)
670,,DispreferenceFirst,dispreferenceFirst,-0.7880220646178093,,,(based on tag)
671,,DispreferenceFirst,dispreferenceFirst,-0.6978367062107467,,,(based on tag)
672,,DispreferenceFirst,dispreferenceFirst,-0.7062146892655368,,,(based on tag)
673,,DispreferenceFirst,dispreferenceFirst,-0.5359056806002144,,,(based on tag)
674,,DispreferenceFirst,dispreferenceFirst,-0.628140703517588,,,(based on tag)
675,,DispreferenceFirst,dispreferenceFirst,-0.38138825324180015,,,(based on tag)
676,,DispreferenceFirst,dispreferenceFirst,-0.39093041438623927,,,(based on tag)
677,,DispreferenceFirst,dispreferenceFirst,-1.0893246187363834,,,(based on tag)
678,,DispreferenceFirst,dispreferenceFirst,-0.9442870632672332,,,(based on tag)
679,,DispreferenceFirst,dispreferenceFirst,-0.5592841163310962,,,(based on tag)
680,,DispreferenceFirst,dispreferenceFirst,-0.5643340857787811,,,(based on tag)
681,,DispreferenceFirst,dispreferenceFirst,-0.5,,,(based on tag)
682,,DispreferenceFirst,dispreferenceFirst,-0.7158196134574087,,,(based on tag)
683,,DispreferenceFirst,dispreferenceFirst,-0.6489292667099286,,,(based on tag)
684,,DispreferenceFirst,dispreferenceFirst,-0.5091649694501018,,,(based on tag)
685,,DispreferenceFirst,dispreferenceFirst,-0.3286230693394676,,,(any response)
686,,DispreferenceFirst,dispreferenceFirst,-0.28826751225136926,,,(based on tag)
687,,DispreferenceFirst,dispreferenceFirst,-0.4562043795620438,,,(based on tag)
688,,DispreferenceFirst,dispreferenceFirst,-0.2420135527589545,,,(based on tag)
689,,DispreferenceFirst,dispreferenceFirst,-0.19293845263360987,,,(based on tag)
690,,DispreferenceFirst,dispreferenceFirst,-0.4001600640256102,,,(based on tag)
691,,DispreferenceFirst,dispreferenceFirst,-0.28851702250432776,,,(based on tag)
692,,DispreferenceFirst,dispreferenceFirst,-0.45248868778280543,,,(based on tag)
693,,DispreferenceFirst,dispreferenceFirst,-0.6285355122564424,,,(based on tag)
694,,DispreferenceFirst,dispreferenceFirst,-0.47393364928909953,,,(based on tag)
695,,DispreferenceFirst,dispreferenceFirst,-0.4095004095004095,,,(based on tag)
696,,DispreferenceFirst,dispreferenceFirst,-0.24295432458697766,,,(based on tag)
697,,DispreferenceFirst,dispreferenceFirst,-0.4716981132075472,,,(based on tag)
698,,DispreferenceFirst,dispreferenceFirst,-0.3056234718826406,,,(based on tag)
699,,DispreferenceFirst,dispreferenceFirst,-0.42140750105351876,,,(based on tag)
700,,DispreferenceFirst,dispreferenceFirst,-0.26392187912377935,,,(based on tag)
701,,DispreferenceFirst,dispreferenceFirst,-0.5966587112171837,,,(based on tag)
702,,DispreferenceFirst,dispreferenceFirst,-0.585480093676815,,,(based on tag)
703,,DispreferenceFirst,dispreferenceFirst,-0.3107520198881293,,,(based on tag)
704,,DispreferenceFirst,dispreferenceFirst,-0.4084967320261438,,,(based on tag)
705,,DispreferenceFirst,dispreferenceFirst,-0.2732987154960372,,,(based on tag)
706,,DispreferenceFirst,dispreferenceFirst,-0.41736227045075125,,,(based on tag)
707,,DispreferenceFirst,dispreferenceFirst,-0.47460844803037494,,,(based on tag)
708,,DispreferenceFirst,dispreferenceFirst,-0.6203473945409429,,,(based on tag)
709,,DispreferenceFirst,dispreferenceFirst,-0.2913752913752914,,,(based on tag)
710,,DispreferenceFirst,dispreferenceFirst,-0.34782608695652173,,,(based on tag)
711,,DispreferenceFirst,dispreferenceFirst,-0.5614823133071308,,,(based on tag)
712,,DispreferenceFirst,dispreferenceFirst,-0.4670714619336759,,,(based on tag)
713,,DispreferenceFirst,dispreferenceFirst,-0.39603960396039606,,,(based on tag)
714,,DispreferenceFirst,dispreferenceFirst,-0.5920663114268798,,,(based on tag)
715,,DispreferenceFirst,dispreferenceFirst,-0.6447453255963894,,,(based on tag)
716,,DispreferenceFirst,dispreferenceFirst,-0.6653359946773121,,,(based on tag)
717,,DispreferenceFirst,dispreferenceFirst,-0.47961630695443647,,,(based on tag)
718,,DispreferenceFirst,dispreferenceFirst,-0.2910360884749709,,,(any response)
719,,DispreferenceFirst,dispreferenceFirst,-0.32808398950131235,,,(based on tag)
720,,DispreferenceFirst,dispreferenceFirst,-0.6361323155216285,,,(based on tag)
721,,DispreferenceFirst,dispreferenceFirst,-0.40290088638195004,,,(based on tag)
722,,DispreferenceFirst,dispreferenceFirst,-0.3688675765400221,,,(based on tag)
723,,DispreferenceFirst,dispreferenceFirst,-0.44603033006244425,,,(based on tag)
724,,DispreferenceFirst,dispreferenceFirst,-0.4065040650406504,,,(based on tag)
725,,DispreferenceFirst,dispreferenceFirst,-0.3952569169960474,,,(based on tag)
726,,DispreferenceFirst,dispreferenceFirst,-0.5518763796909493,,,(based on tag)
727,,DispreferenceFirst,dispreferenceFirst,-0.6038647342995169,,,(based on tag)
728,,DispreferenceFirst,dispreferenceFirst,-0.3286230693394676,,,(based on tag)
729,,DispreferenceFirst,dispreferenceFirst,-0.46296296296296297,,,(based on tag)
730,,DispreferenceFirst,dispreferenceFirst,-0.5417118093174431,,,(based on tag)
731,,DispreferenceFirst,dispreferenceFirst,-0.7336757153338225,,,(based on tag)
732,,DispreferenceFirst,dispreferenceFirst,-0.41841004184100417,,,(based on tag)
733,,DispreferenceFirst,dispreferenceFirst,-0.5844535359438925,,,(based on tag)
734,,DispreferenceFirst,dispreferenceFirst,-0.4816955684007707,,,(based on tag)
735,,DispreferenceFirst,dispreferenceFirst,-0.29770765108663294,,,(based on tag)
736,,DispreferenceFirst,dispreferenceFirst,-0.49382716049382713,,,(based on tag)
737,,DispreferenceFirst,dispreferenceFirst,-0.5627462014631401,,,(based on tag)
738,,DispreferenceFirst,dispreferenceFirst,-0.38804811796662786,,,(based on tag)
739,,DispreferenceFirst,dispreferenceFirst,-0.49261083743842365,,,(based on tag)
740,,DispreferenceFirst,dispreferenceFirst,-0.44583147570218457,,,(based on tag)
741,,DispreferenceFirst,dispreferenceFirst,-0.5698005698005698,,,(based on tag)
742,,DispreferenceFirst,dispreferenceFirst,-0.5621135469364812,,,(based on tag)
743,,DispreferenceFirst,dispreferenceFirst,-0.5488474204171241,,,(based on tag)
744,,DispreferenceFirst,dispreferenceFirst,-0.36764705882352944,,,(based on tag)
745,,DispreferenceFirst,dispreferenceFirst,-0.7067137809187279,,,(based on tag)
746,,DispreferenceFirst,dispreferenceFirst,-0.6675567423230975,,,(based on tag)
747,,DispreferenceFirst,dispreferenceFirst,-0.6988120195667366,,,(based on tag)
748,,DispreferenceFirst,dispreferenceFirst,-0.8368200836820083,,,(based on tag)
749,,DispreferenceFirst,dispreferenceFirst,-0.501002004008016,,,(based on tag)
750,,DispreferenceFirst,dispreferenceFirst,-0.7993605115907274,,,(based on tag)
751,,DispreferenceFirst,dispreferenceFirst,-0.3343363423604146,,,(any response)
752,,DispreferenceFirst,dispreferenceFirst,-0.48828125,,,(based on tag)
753,,DispreferenceFirst,dispreferenceFirst,-0.5192107995846313,,,(based on tag)
754,,DispreferenceFirst,dispreferenceFirst,-0.38022813688212925,,,(based on tag)
755,,DispreferenceFirst,dispreferenceFirst,-0.612369871402327,,,(based on tag)
756,,DispreferenceFirst,dispreferenceFirst,-0.45392646391284613,,,(based on tag)
757,,DispreferenceFirst,dispreferenceFirst,-0.47573739295908657,,,(based on tag)
758,,DispreferenceFirst,dispreferenceFirst,-0.5668934240362812,,,(based on tag)
759,,DispreferenceFirst,dispreferenceFirst,-0.4662004662004662,,,(based on tag)
760,,DispreferenceFirst,dispreferenceFirst,-0.4670714619336759,,,(based on tag)
761,,DispreferenceFirst,dispreferenceFirst,-0.339097999321804,,,(based on tag)
762,,DispreferenceFirst,dispreferenceFirst,-0.6711409395973155,,,(based on tag)
763,,DispreferenceFirst,dispreferenceFirst,-0.32393909944930355,,,(based on tag)
764,,DispreferenceFirst,dispreferenceFirst,-0.6176652254478073,,,(based on tag)
765,,DispreferenceFirst,dispreferenceFirst,-0.5091649694501018,,,(based on tag)
766,,DispreferenceFirst,dispreferenceFirst,-0.5561735261401557,,,(based on tag)
767,,DispreferenceFirst,dispreferenceFirst,-0.48614487117160915,,,(based on tag)
768,,DispreferenceFirst,dispreferenceFirst,-0.509683995922528,,,(based on tag)
769,,DispreferenceFirst,dispreferenceFirst,-0.7027406886858749,,,(based on tag)
770,,DispreferenceFirst,dispreferenceFirst,-0.5449591280653951,,,(based on tag)
771,,DispreferenceFirst,dispreferenceFirst,-0.48614487117160915,,,(based on tag)
772,,DispreferenceFirst,dispreferenceFirst,-0.33156498673740054,,,(based on tag)
773,,DispreferenceFirst,dispreferenceFirst,-0.513874614594039,,,(based on tag)
774,,DispreferenceFirst,dispreferenceFirst,-0.5827505827505828,,,(based on tag)
775,,DispreferenceFirst,dispreferenceFirst,-0.5053057099545225,,,(based on tag)
776,,DispreferenceFirst,dispreferenceFirst,-0.7407407407407407,,,(based on tag)
777,,DispreferenceFirst,dispreferenceFirst,-0.7936507936507936,,,(based on tag)
778,,DispreferenceFirst,dispreferenceFirst,-0.43459365493263796,,,(based on tag)
779,,DispreferenceFirst,dispreferenceFirst,-0.3207184092366902,,,(based on tag)
780,,DispreferenceFirst,dispreferenceFirst,-0.6802721088435374,,,(based on tag)
781,,DispreferenceFirst,dispreferenceFirst,-0.6915629322268326,,,(based on tag)
782,,DispreferenceFirst,dispreferenceFirst,-0.819000819000819,,,(based on tag)
783,,DispreferenceFirst,dispreferenceFirst,-0.922509225092251,,,(based on tag)
784,,DispreferenceFirst,dispreferenceFirst,-0.44365572315882873,,,(any response)
785,,DispreferenceFirst,dispreferenceFirst,-0.7037297677691766,,,(based on tag)
786,,DispreferenceFirst,dispreferenceFirst,-0.4734848484848485,,,(based on tag)
787,,DispreferenceFirst,dispreferenceFirst,-0.5656108597285068,,,(based on tag)
788,,DispreferenceFirst,dispreferenceFirst,-0.42140750105351876,,,(based on tag)
789,,DispreferenceFirst,dispreferenceFirst,-0.7396449704142012,,,(based on tag)
790,,DispreferenceFirst,dispreferenceFirst,-0.7961783439490446,,,(based on tag)
791,,DispreferenceFirst,dispreferenceFirst,-0.8375209380234506,,,(based on tag)
792,,DispreferenceFirst,dispreferenceFirst,-0.916590284142988,,,(based on tag)
793,,DispreferenceFirst,dispreferenceFirst,-0.9900990099009901,,,(based on tag)
794,,DispreferenceFirst,dispreferenceFirst,-0.8733624454148472,,,(based on tag)
795,,DispreferenceFirst,dispreferenceFirst,-0.8136696501220505,,,(based on tag)
796,,DispreferenceFirst,dispreferenceFirst,-0.7535795026375283,,,(based on tag)
797,,DispreferenceFirst,dispreferenceFirst,-0.794912559618442,,,(based on tag)
798,,DispreferenceFirst,dispreferenceFirst,-0.8244023083264633,,,(based on tag)
799,,DispreferenceFirst,dispreferenceFirst,-0.36791758646063283,,,(based on tag)
800,,DispreferenceFirst,dispreferenceFirst,-0.7662835249042146,,,(based on tag)
801,,DispreferenceFirst,dispreferenceFirst,-0.7524454477050414,,,(based on tag)
802,,DispreferenceFirst,dispreferenceFirst,-0.800640512409928,,,(based on tag)
803,,DispreferenceFirst,dispreferenceFirst,-0.7251631617113851,,,(based on tag)
804,,DispreferenceFirst,dispreferenceFirst,-0.7168458781362007,,,(based on tag)
805,,DispreferenceFirst,dispreferenceFirst,-0.4928536224741252,,,(based on tag)
806,,DispreferenceFirst,dispreferenceFirst,-0.46511627906976744,,,(based on tag)
807,,DispreferenceFirst,dispreferenceFirst,-0.6414368184733804,,,(based on tag)
808,,DispreferenceFirst,dispreferenceFirst,-0.6618133686300464,,,(based on tag)
809,,DispreferenceFirst,dispreferenceFirst,-0.6082725060827251,,,(based on tag)
810,,DispreferenceFirst,dispreferenceFirst,-0.7593014426727411,,,(based on tag)
811,,DispreferenceFirst,dispreferenceFirst,-0.6684491978609626,,,(based on tag)
812,,DispreferenceFirst,dispreferenceFirst,-0.7304601899196493,,,(based on tag)
813,,DispreferenceFirst,dispreferenceFirst,-0.7867820613690008,,,(based on tag)
814,,DispreferenceFirst,dispreferenceFirst,-0.8658008658008658,,,(based on tag)
815,,DispreferenceFirst,dispreferenceFirst,-0.9057971014492754,,,(based on tag)
816,,DispreferenceFirst,dispreferenceFirst,-0.9372071227741331,,,(based on tag)
817,,DispreferenceFirst,dispreferenceFirst,-0.43917435221783047,,,(any response)
818,,DispreferenceFirst,dispreferenceFirst,-0.40096230954290296,,,(based on tag)
819,,DispreferenceFirst,dispreferenceFirst,-0.8598452278589854,,,(based on tag)
820,,DispreferenceFirst,dispreferenceFirst,-0.7204610951008645,,,(based on tag)
821,,DispreferenceFirst,dispreferenceFirst,-0.7593014426727411,,,(based on tag)
822,,DispreferenceFirst,dispreferenceFirst,-0.7776049766718507,,,(based on tag)
823,,DispreferenceFirst,dispreferenceFirst,-0.800640512409928,,,(based on tag)
824,,DispreferenceFirst,dispreferenceFirst,-0.8445945945945946,,,(based on tag)
825,,DispreferenceFirst,dispreferenceFirst,-0.4725897920604915,,,(based on tag)
826,,DispreferenceFirst,dispreferenceFirst,-0.7401924500370096,,,(based on tag)
827,,DispreferenceFirst,dispreferenceFirst,-0.7468259895444361,,,(based on tag)
828,,DispreferenceFirst,dispreferenceFirst,-0.8665511265164645,,,(based on tag)
829,,DispreferenceFirst,dispreferenceFirst,-0.8417508417508418,,,(based on tag)
830,,DispreferenceFirst,dispreferenceFirst,-0.7194244604316546,,,(based on tag)
831,,DispreferenceFirst,dispreferenceFirst,-0.3904724716907458,,,(based on tag)
832,,DispreferenceFirst,dispreferenceFirst,-0.5202913631633714,,,(based on tag)
833,,DispreferenceFirst,dispreferenceFirst,-0.3141690229343387,,,(based on tag)
834,,DispreferenceFirst,dispreferenceFirst,-0.5293806246691372,,,(based on tag)
835,,DispreferenceFirst,dispreferenceFirst,-0.6042296072507553,,,(based on tag)
836,,DispreferenceFirst,dispreferenceFirst,-0.819000819000819,,,(based on tag)
837,,DispreferenceFirst,dispreferenceFirst,-0.7727975270479135,,,(based on tag)
838,,DispreferenceFirst,dispreferenceFirst,-0.6802721088435374,,,(based on tag)
839,,DispreferenceFirst,dispreferenceFirst,-0.7067137809187279,,,(based on tag)
840,,DispreferenceFirst,dispreferenceFirst,-0.6523157208088715,,,(based on tag)
841,,DispreferenceFirst,dispreferenceFirst,-0.6978367062107467,,,(based on tag)
842,,DispreferenceFirst,dispreferenceFirst,-0.7451564828614009,,,(based on tag)
843,,DispreferenceFirst,dispreferenceFirst,-0.6365372374283895,,,(based on tag)
844,,DispreferenceFirst,dispreferenceFirst,-0.7880220646178093,,,(based on tag)
845,,DispreferenceFirst,dispreferenceFirst,-0.42535091450446616,,,(based on tag)
846,,DispreferenceFirst,dispreferenceFirst,-0.693000693000693,,,(based on tag)
847,,DispreferenceFirst,dispreferenceFirst,-0.6527415143603134,,,(based on tag)
848,,DispreferenceFirst,dispreferenceFirst,-0.7429420505200595,,,(based on tag)
849,,DispreferenceFirst,dispreferenceFirst,-0.7836990595611285,,,(based on tag)
850,,DispreferenceFirst,dispreferenceFirst,-0.32404406999351915,,,(any response)
851,,DispreferenceFirst,dispreferenceFirst,-0.47778308647873863,,,(based on tag)
852,,DispreferenceFirst,dispreferenceFirst,-0.5910165484633569,,,(based on tag)
853,,DispreferenceFirst,dispreferenceFirst,-0.6127450980392157,,,(based on tag)
854,,DispreferenceFirst,dispreferenceFirst,-0.6447453255963894,,,(based on tag)
855,,DispreferenceFirst,dispreferenceFirst,-0.7369196757553427,,,(based on tag)
856,,DispreferenceFirst,dispreferenceFirst,-0.723589001447178,,,(based on tag)
857,,DispreferenceFirst,dispreferenceFirst,-0.6150061500615006,,,(based on tag)
858,,DispreferenceFirst,dispreferenceFirst,-0.6891798759476223,,,(based on tag)
859,,DispreferenceFirst,dispreferenceFirst,-0.5399568034557235,,,(based on tag)
860,,DispreferenceFirst,dispreferenceFirst,-0.6108735491753207,,,(based on tag)
861,,DispreferenceFirst,dispreferenceFirst,-0.8532423208191127,,,(based on tag)
862,,DispreferenceFirst,dispreferenceFirst,-0.6729475100942126,,,(based on tag)
863,,DispreferenceFirst,dispreferenceFirst,-0.8116883116883117,,,(based on tag)
864,,DispreferenceFirst,dispreferenceFirst,-0.7468259895444361,,,(based on tag)
865,,DispreferenceFirst,dispreferenceFirst,-0.7267441860465116,,,(based on tag)
866,,DispreferenceFirst,dispreferenceFirst,-0.9871668311944719,,,(based on tag)
867,,DispreferenceFirst,dispreferenceFirst,-0.8748906386701663,,,(based on tag)
868,,DispreferenceFirst,dispreferenceFirst,-0.7898894154818326,,,(based on tag)
869,,DispreferenceFirst,dispreferenceFirst,-0.8873114463176575,,,(based on tag)
870,,DispreferenceFirst,dispreferenceFirst,-0.800640512409928,,,(based on tag)
871,,DispreferenceFirst,dispreferenceFirst,-0.7911392405063291,,,(based on tag)
872,,DispreferenceFirst,dispreferenceFirst,-0.9433962264150944,,,(based on tag)
873,,DispreferenceFirst,dispreferenceFirst,-0.9970089730807578,,,(based on tag)
874,,DispreferenceFirst,dispreferenceFirst,-0.6609385327164574,,,(based on tag)
875,,DispreferenceFirst,dispreferenceFirst,-0.3835826620636747,,,(based on tag)
876,,DispreferenceFirst,dispreferenceFirst,-0.5688282138794084,,,(based on tag)
877,,DispreferenceFirst,dispreferenceFirst,-0.6325110689437066,,,(based on tag)
878,,DispreferenceFirst,dispreferenceFirst,-0.7886435331230284,,,(based on tag)
879,,DispreferenceFirst,dispreferenceFirst,-0.7147962830593281,,,(based on tag)
880,,DispreferenceFirst,dispreferenceFirst,-0.8787346221441125,,,(based on tag)
881,,DispreferenceFirst,dispreferenceFirst,-0.7704160246533128,,,(based on tag)
882,,DispreferenceFirst,dispreferenceFirst,-0.5361930294906166,,,(based on tag)
883,,DispreferenceFirst,dispreferenceFirst,-0.16276041666666666,,,(any response)
884,,DispreferenceFirst,dispreferenceFirst,-0.7830853563038371,,,(based on tag)
885,,DispreferenceFirst,dispreferenceFirst,-0.7374631268436578,,,(based on tag)
886,,DispreferenceFirst,dispreferenceFirst,-0.7326007326007326,,,(based on tag)
887,,DispreferenceFirst,dispreferenceFirst,-0.7558578987150416,,,(based on tag)
888,,DispreferenceFirst,dispreferenceFirst,-0.8984725965858041,,,(based on tag)
889,,DispreferenceFirst,dispreferenceFirst,-0.823045267489712,,,(based on tag)
890,,DispreferenceFirst,dispreferenceFirst,-0.7304601899196493,,,(based on tag)
891,,DispreferenceFirst,dispreferenceFirst,-0.7457121551081283,,,(based on tag)
892,,DispreferenceFirst,dispreferenceFirst,-1.002004008016032,,,(based on tag)
893,,DispreferenceFirst,dispreferenceFirst,-0.6605019815059445,,,(based on tag)
894,,DispreferenceFirst,dispreferenceFirst,-0.8347245409015025,,,(based on tag)
895,,DispreferenceFirst,dispreferenceFirst,-0.7209805335255948,,,(based on tag)
896,,DispreferenceFirst,dispreferenceFirst,-1.050420168067227,,,(based on tag)
897,,DispreferenceFirst,dispreferenceFirst,-0.7369196757553427,,,(based on tag)
898,,DispreferenceFirst,dispreferenceFirst,-0.9699321047526673,,,(based on tag)
899,,DispreferenceFirst,dispreferenceFirst,-0.9737098344693281,,,(based on tag)
900,,DispreferenceFirst,dispreferenceFirst,-0.9891196834817013,,,(based on tag)
901,,DispreferenceFirst,dispreferenceFirst,-0.76103500761035,,,(based on tag)
902,,DispreferenceFirst,dispreferenceFirst,-0.7251631617113851,,,(based on tag)
903,,DispreferenceFirst,dispreferenceFirst,-0.7680491551459293,,,(based on tag)
904,,DispreferenceFirst,dispreferenceFirst,-0.6317119393556538,,,(based on tag)
905,,DispreferenceFirst,dispreferenceFirst,-1.0319917440660475,,,(based on tag)
906,,DispreferenceFirst,dispreferenceFirst,-1.0,,,(based on tag)
907,,DispreferenceFirst,dispreferenceFirst,-0.5668934240362812,,,(based on tag)
908,,DispreferenceFirst,dispreferenceFirst,-0.7479431563201197,,,(based on tag)
909,,DispreferenceFirst,dispreferenceFirst,-0.7974481658692185,,,(based on tag)
910,,DispreferenceFirst,dispreferenceFirst,-0.5431830526887561,,,(based on tag)
911,,DispreferenceFirst,dispreferenceFirst,-1.0030090270812437,,,(based on tag)
912,,DispreferenceFirst,dispreferenceFirst,-0.4342162396873643,,,(based on tag)
913,,DispreferenceFirst,dispreferenceFirst,-0.7127583749109052,,,(based on tag)
914,,DispreferenceFirst,dispreferenceFirst,-0.683526999316473,,,(based on tag)
915,,DispreferenceFirst,dispreferenceFirst,-0.6802721088435374,,,(based on tag)
916,,DispreferenceFirst,dispreferenceFirst,-0.25195263290501385,,,(any response)
917,,DispreferenceFirst,dispreferenceFirst,-0.8071025020177562,,,(based on tag)
918,,DispreferenceFirst,dispreferenceFirst,-0.922509225092251,,,(based on tag)
919,,DispreferenceFirst,dispreferenceFirst,-0.5672149744753261,,,(based on tag)
920,,DispreferenceFirst,dispreferenceFirst,-0.7898894154818326,,,(based on tag)
921,,DispreferenceFirst,dispreferenceFirst,-0.8312551953449709,,,(based on tag)
922,,DispreferenceFirst,dispreferenceFirst,-0.9615384615384616,,,(based on tag)
923,,DispreferenceFirst,dispreferenceFirst,-0.9157509157509157,,,(based on tag)
924,,DispreferenceFirst,dispreferenceFirst,-0.5605381165919282,,,(based on tag)
925,,DispreferenceFirst,dispreferenceFirst,-0.5747126436781609,,,(based on tag)
926,,DispreferenceFirst,dispreferenceFirst,-0.8613264427217916,,,(based on tag)
927,,DispreferenceFirst,dispreferenceFirst,-0.946969696969697,,,(based on tag)
928,,DispreferenceFirst,dispreferenceFirst,-0.7993605115907274,,,(based on tag)
929,,DispreferenceFirst,dispreferenceFirst,-0.7639419404125286,,,(based on tag)
930,,DispreferenceFirst,dispreferenceFirst,-1.1376564277588168,,,(based on tag)
931,,DispreferenceFirst,dispreferenceFirst,-0.9587727708533078,,,(based on tag)
932,,DispreferenceFirst,dispreferenceFirst,-0.6609385327164574,,,(based on tag)
933,,DispreferenceFirst,dispreferenceFirst,-0.5022601707684581,,,(based on tag)
934,,DispreferenceFirst,dispreferenceFirst,-0.6738544474393531,,,(based on tag)
935,,DispreferenceFirst,dispreferenceFirst,-0.8410428931875525,,,(based on tag)
936,,DispreferenceFirst,dispreferenceFirst,-0.7530120481927711,,,(based on tag)
937,,DispreferenceFirst,dispreferenceFirst,-0.6578947368421053,,,(based on tag)
938,,DispreferenceFirst,dispreferenceFirst,-0.6729475100942126,,,(based on tag)
939,,DispreferenceFirst,dispreferenceFirst,-0.7320644216691069,,,(based on tag)
940,,DispreferenceFirst,dispreferenceFirst,-0.8312551953449709,,,(based on tag)
941,,DispreferenceFirst,dispreferenceFirst,-0.8598452278589854,,,(based on tag)
942,,DispreferenceFirst,dispreferenceFirst,-0.41169205434335115,,,(based on tag)
943,,DispreferenceFirst,dispreferenceFirst,-0.7627765064836003,,,(based on tag)
944,,DispreferenceFirst,dispreferenceFirst,-1.017293997965412,,,(based on tag)
945,,DispreferenceFirst,dispreferenceFirst,-0.7686395080707148,,,(based on tag)
946,,DispreferenceFirst,dispreferenceFirst,-0.7127583749109052,,,(based on tag)
947,,DispreferenceFirst,dispreferenceFirst,-1.0905125408942202,,,(based on tag)
948,,DispreferenceFirst,dispreferenceFirst,-0.6447453255963894,,,(based on tag)
949,,DispreferenceFirst,dispreferenceFirst,-0.2644802962179318,,,(any response)
950,,DispreferenceFirst,dispreferenceFirst,-0.6784260515603799,,,(based on tag)
951,,DispreferenceFirst,dispreferenceFirst,-1.017293997965412,,,(based on tag)
952,,DispreferenceFirst,dispreferenceFirst,-0.9276437847866419,,,(based on tag)
953,,DispreferenceFirst,dispreferenceFirst,-0.7374631268436578,,,(based on tag)
954,,DispreferenceFirst,dispreferenceFirst,-0.8460236886632826,,,(based on tag)
955,,DispreferenceFirst,dispreferenceFirst,-0.7668711656441718,,,(based on tag)
956,,DispreferenceFirst,dispreferenceFirst,-1.0570824524312896,,,(based on tag)
957,,DispreferenceFirst,dispreferenceFirst,-0.6501950585175552,,,(based on tag)
958,,DispreferenceFirst,dispreferenceFirst,-0.7407407407407407,,,(based on tag)
959,,DispreferenceFirst,dispreferenceFirst,-0.5865102639296188,,,(based on tag)
960,,DispreferenceFirst,dispreferenceFirst,-0.8944543828264758,,,(based on tag)
961,,DispreferenceFirst,dispreferenceFirst,-0.6464124111182935,,,(based on tag)
962,,DispreferenceFirst,dispreferenceFirst,-0.7168458781362007,,,(based on tag)
963,,DispreferenceFirst,dispreferenceFirst,-0.966183574879227,,,(based on tag)
964,,DispreferenceFirst,dispreferenceFirst,-0.38080731150038083,,,(based on tag)
965,,DispreferenceFirst,dispreferenceFirst,-0.9233610341643582,,,(based on tag)
966,,DispreferenceFirst,dispreferenceFirst,-0.6896551724137931,,,(based on tag)
967,,DispreferenceFirst,dispreferenceFirst,-0.6317119393556538,,,(based on tag)
968,,DispreferenceFirst,dispreferenceFirst,-0.5868544600938967,,,(based on tag)
969,,DispreferenceFirst,dispreferenceFirst,-0.6211180124223602,,,(based on tag)
970,,DispreferenceFirst,dispreferenceFirst,-1.303780964797914,,,(based on tag)
971,,DispreferenceFirst,dispreferenceFirst,-0.9363295880149812,,,(based on tag)
972,,DispreferenceFirst,dispreferenceFirst,-0.8771929824561403,,,(based on tag)
973,,DispreferenceFirst,dispreferenceFirst,-0.777000777000777,,,(based on tag)
974,,DispreferenceFirst,dispreferenceFirst,-0.7818608287724785,,,(based on tag)
975,,DispreferenceFirst,dispreferenceFirst,-0.5017561465127948,,,(based on tag)
976,,DispreferenceFirst,dispreferenceFirst,-1.0214504596527068,,,(based on tag)
977,,DispreferenceFirst,dispreferenceFirst,-0.819000819000819,,,(based on tag)
978,,DispreferenceFirst,dispreferenceFirst,-0.7513148009015778,,,(based on tag)
979,,DispreferenceFirst,dispreferenceFirst,-0.7189072609633357,,,(based on tag)
980,,DispreferenceFirst,dispreferenceFirst,-0.7541478129713424,,,(based on tag)
981,,DispreferenceFirst,dispreferenceFirst,-0.9140767824497258,,,(based on tag)
982,,DispreferenceFirst,dispreferenceFirst,-0.3443526170798898,,,(any response)
983,,DispreferenceFirst,dispreferenceFirst,-0.6765899864682002,,,(based on tag)
984,,DispreferenceFirst,dispreferenceFirst,-0.9259259259259259,,,(based on tag)
985,,DispreferenceFirst,dispreferenceFirst,-0.8703220191470844,,,(based on tag)
986,,DispreferenceFirst,dispreferenceFirst,-0.6934812760055479,,,(based on tag)
987,,DispreferenceFirst,dispreferenceFirst,-0.8271298593879239,,,(based on tag)
988,,DispreferenceFirst,dispreferenceFirst,-1.1820330969267139,,,(based on tag)
989,,DispreferenceFirst,dispreferenceFirst,-0.5980861244019139,,,(based on tag)
990,,DispreferenceFirst,dispreferenceFirst,-0.8896797153024911,,,(based on tag)
991,,DispreferenceFirst,dispreferenceFirst,-0.6142506142506142,,,(based on tag)
992,,DispreferenceFirst,dispreferenceFirst,-0.5364806866952789,,,(based on tag)
993,,DispreferenceFirst,dispreferenceFirst,-0.7336757153338225,,,(based on tag)
994,,DispreferenceFirst,dispreferenceFirst,-0.6557377049180327,,,(based on tag)
995,,DispreferenceFirst,dispreferenceFirst,-0.7598784194528876,,,(based on tag)
996,,DispreferenceFirst,dispreferenceFirst,-0.5977286312014346,,,(based on tag)
997,,DispreferenceFirst,dispreferenceFirst,-0.5488474204171241,,,(based on tag)
998,,DispreferenceFirst,dispreferenceFirst,-0.9852216748768473,,,(based on tag)
999,,DispreferenceFirst,dispreferenceFirst,-0.9671179883945842,,,(based on tag)
1000,,DispreferenceFirst,dispreferenceFirst,-0.5889281507656066,,,(based on tag)
1001,,DispreferenceFirst,dispreferenceFirst,-0.6013229104028863,,,(based on tag)
1002,,DispreferenceFirst,dispreferenceFirst,-1.0351966873706004,,,(based on tag)
1003,,DispreferenceFirst,dispreferenceFirst,-1.0660980810234542,,,(based on tag)
1004,,DispreferenceFirst,dispreferenceFirst,-0.7763975155279503,,,(based on tag)
1005,,DispreferenceFirst,dispreferenceFirst,-0.9560229445506692,,,(based on tag)
1006,,DispreferenceFirst,dispreferenceFirst,-0.7836990595611285,,,(based on tag)
1007,,DispreferenceFirst,dispreferenceFirst,-0.7855459544383346,,,(based on tag)
1008,,DispreferenceFirst,dispreferenceFirst,-0.7479431563201197,,,(based on tag)
1009,,DispreferenceFirst,dispreferenceFirst,-0.8143322475570033,,,(based on tag)
1010,,DispreferenceFirst,dispreferenceFirst,-0.9514747859181731,,,(based on tag)
1011,,DispreferenceFirst,dispreferenceFirst,-1.0810810810810811,,,(based on tag)
1012,,DispreferenceFirst,dispreferenceFirst,-0.5714285714285714,,,(based on tag)
1013,,DispreferenceFirst,dispreferenceFirst,-0.7716049382716049,,,(based on tag)
1014,,DispreferenceFirst,dispreferenceFirst,-0.6939625260235948,,,(based on tag)
1015,,DispreferenceFirst,dispreferenceFirst,-0.37160906726124115,,,(any response)
1016,,DispreferenceFirst,dispreferenceFirst,-0.5070993914807302,,,(based on tag)
1017,,DispreferenceFirst,dispreferenceFirst,-0.8032128514056225,,,(based on tag)
1018,,DispreferenceFirst,dispreferenceFirst,-0.6688963210702341,,,(based on tag)
1019,,DispreferenceFirst,dispreferenceFirst,-0.5787037037037037,,,(based on tag)
1020,,DispreferenceFirst,dispreferenceFirst,-1.1737089201877935,,,(based on tag)
1021,,DispreferenceFirst,dispreferenceFirst,-0.9380863039399625,,,(based on tag)
1022,,DispreferenceFirst,dispreferenceFirst,-0.8116883116883117,,,(based on tag)
1023,,DispreferenceFirst,dispreferenceFirst,-0.5546311702717692,,,(based on tag)
1024,,DispreferenceFirst,dispreferenceFirst,-0.6207324643078833,,,(based on tag)
1025,,DispreferenceFirst,dispreferenceFirst,-0.727802037845706,,,(based on tag)
1026,,DispreferenceFirst,dispreferenceFirst,-0.6468305304010349,,,(based on tag)
1027,,DispreferenceFirst,dispreferenceFirst,-0.9242144177449169,,,(based on tag)
1028,,DispreferenceFirst,dispreferenceFirst,-0.794912559618442,,,(based on tag)
1029,,DispreferenceFirst,dispreferenceFirst,-0.7692307692307693,,,(based on tag)
1030,,DispreferenceFirst,dispreferenceFirst,-0.5652911249293386,,,(based on tag)
1031,,DispreferenceFirst,dispreferenceFirst,-0.36023054755043227,,,(based on tag)
1032,,DispreferenceFirst,dispreferenceFirst,-0.5186721991701245,,,(based on tag)
1033,,DispreferenceFirst,dispreferenceFirst,-0.6715916722632639,,,(based on tag)
1034,,DispreferenceFirst,dispreferenceFirst,-0.6958942240779401,,,(based on tag)
1035,,DispreferenceFirst,dispreferenceFirst,-0.4662004662004662,,,(based on tag)
1036,,DispreferenceFirst,dispreferenceFirst,-0.5050505050505051,,,(based on tag)
1037,,DispreferenceFirst,dispreferenceFirst,-0.585480093676815,,,(based on tag)
1038,,DispreferenceFirst,dispreferenceFirst,-0.40535062829347385,,,(based on tag)
1039,,DispreferenceFirst,dispreferenceFirst,-0.48426150121065376,,,(based on tag)
1040,,DispreferenceFirst,dispreferenceFirst,-0.3933910306845004,,,(based on tag)
1041,,DispreferenceFirst,dispreferenceFirst,-0.6238303181534622,,,(based on tag)
1042,,DispreferenceFirst,dispreferenceFirst,-0.8673026886383348,,,(based on tag)
1043,,DispreferenceFirst,dispreferenceFirst,-0.5083884087442806,,,(based on tag)
1044,,DispreferenceFirst,dispreferenceFirst,-0.5780346820809249,,,(based on tag)
1045,,DispreferenceFirst,dispreferenceFirst,-0.66711140760507,,,(based on tag)
1046,,DispreferenceFirst,dispreferenceFirst,-0.6377551020408163,,,(based on tag)
1047,,DispreferenceFirst,dispreferenceFirst,-0.4528985507246377,,,(based on tag)
1048,,DispreferenceFirst,dispreferenceFirst,-0.4314063848144953,,,(any response)
1049,,DispreferenceFirst,dispreferenceFirst,-0.6557377049180327,,,(based on tag)
1050,,DispreferenceFirst,dispreferenceFirst,-0.7633587786259542,,,(based on tag)
1051,,DispreferenceFirst,dispreferenceFirst,-0.3523608174770965,,,(based on tag)
1052,,DispreferenceFirst,dispreferenceFirst,-0.7616146230007617,,,(based on tag)
1053,,DispreferenceFirst,dispreferenceFirst,-0.7293946024799417,,,(based on tag)
1054,,DispreferenceFirst,dispreferenceFirst,-0.4299226139294927,,,(based on tag)
1055,,DispreferenceFirst,dispreferenceFirst,-0.78064012490242,,,(based on tag)
1056,,DispreferenceFirst,dispreferenceFirst,-0.7692307692307693,,,(based on tag)
1057,,DispreferenceFirst,dispreferenceFirst,-0.779423226812159,,,(based on tag)
1058,,DispreferenceFirst,dispreferenceFirst,-0.3988831272437176,,,(based on tag)
1059,,DispreferenceFirst,dispreferenceFirst,-0.9881422924901185,,,(based on tag)
1060,,DispreferenceFirst,dispreferenceFirst,-0.6373486297004461,,,(based on tag)
1061,,DispreferenceFirst,dispreferenceFirst,-0.8278145695364238,,,(based on tag)
1062,,DispreferenceFirst,dispreferenceFirst,-0.5817335660267597,,,(based on tag)
1063,,DispreferenceFirst,dispreferenceFirst,-0.7886435331230284,,,(based on tag)
1064,,DispreferenceFirst,dispreferenceFirst,-0.42955326460481097,,,(based on tag)
1065,,DispreferenceFirst,dispreferenceFirst,-0.43122035360068994,,,(based on tag)
1066,,DispreferenceFirst,dispreferenceFirst,-0.7189072609633357,,,(based on tag)
1067,,DispreferenceFirst,dispreferenceFirst,-0.6920415224913494,,,(based on tag)
1068,,DispreferenceFirst,dispreferenceFirst,-0.6631299734748011,,,(based on tag)
1069,,DispreferenceFirst,dispreferenceFirst,-0.6035003017501509,,,(based on tag)
1070,,DispreferenceFirst,dispreferenceFirst,-0.5871990604815033,,,(based on tag)
1071,,DispreferenceFirst,dispreferenceFirst,-0.6013229104028863,,,(based on tag)
1072,,DispreferenceFirst,dispreferenceFirst,-0.8038585209003215,,,(based on tag)
1073,,DispreferenceFirst,dispreferenceFirst,-0.8340283569641368,,,(based on tag)
1074,,DispreferenceFirst,dispreferenceFirst,-0.3460207612456747,,,(based on tag)
1075,,DispreferenceFirst,dispreferenceFirst,-0.7057163020465773,,,(based on tag)
1076,,DispreferenceFirst,dispreferenceFirst,-0.7739938080495357,,,(based on tag)
1077,,DispreferenceFirst,dispreferenceFirst,-0.4604051565377532,,,(based on tag)
1078,,DispreferenceFirst,dispreferenceFirst,-0.8517887563884157,,,(based on tag)
1079,,DispreferenceFirst,dispreferenceFirst,-0.3522367030644593,,,(based on tag)
1080,,DispreferenceFirst,dispreferenceFirst,-0.4789272030651341,,,(based on tag)
1081,,DispreferenceFirst,dispreferenceFirst,-0.2552322613578356,,,(any response)
1082,,DispreferenceFirst,dispreferenceFirst,-0.4782400765184122,,,(based on tag)
1083,,DispreferenceFirst,dispreferenceFirst,-0.7558578987150416,,,(based on tag)
1084,,DispreferenceFirst,dispreferenceFirst,-0.6188118811881188,,,(based on tag)
1085,,DispreferenceFirst,dispreferenceFirst,-0.7886435331230284,,,(based on tag)
1086,,DispreferenceFirst,dispreferenceFirst,-0.6788866259334692,,,(based on tag)
1087,,DispreferenceFirst,dispreferenceFirst,-0.779423226812159,,,(based on tag)
1088,,DispreferenceFirst,dispreferenceFirst,-0.78125,,,(based on tag)
1089,,DispreferenceFirst,dispreferenceFirst,-0.9699321047526673,,,(based on tag)
1090,,DispreferenceFirst,dispreferenceFirst,-0.8802816901408451,,,(based on tag)
1091,,DispreferenceFirst,dispreferenceFirst,-0.8904719501335708,,,(based on tag)
1092,,DispreferenceFirst,dispreferenceFirst,-0.6060606060606061,,,(based on tag)
1093,,DispreferenceFirst,dispreferenceFirst,-0.9259259259259259,,,(based on tag)
1094,,DispreferenceFirst,dispreferenceFirst,-0.8771929824561403,,,(based on tag)
1095,,DispreferenceFirst,dispreferenceFirst,-0.723589001447178,,,(based on tag)
1096,,DispreferenceFirst,dispreferenceFirst,-0.7496251874062968,,,(based on tag)
1097,,DispreferenceFirst,dispreferenceFirst,-0.9124087591240876,,,(based on tag)
1098,,DispreferenceFirst,dispreferenceFirst,-0.7304601899196493,,,(based on tag)
1099,,DispreferenceFirst,dispreferenceFirst,-0.7824726134585289,,,(based on tag)
1100,,DispreferenceFirst,dispreferenceFirst,-0.5249343832020997,,,(based on tag)
1101,,DispreferenceFirst,dispreferenceFirst,-0.8090614886731392,,,(based on tag)
1102,,DispreferenceFirst,dispreferenceFirst,-0.5959475566150179,,,(based on tag)
1103,,DispreferenceFirst,dispreferenceFirst,-0.6086427267194157,,,(based on tag)
1104,,DispreferenceFirst,dispreferenceFirst,-0.4719207173194903,,,(based on tag)
1105,,DispreferenceFirst,dispreferenceFirst,-0.8904719501335708,,,(based on tag)
1106,,DispreferenceFirst,dispreferenceFirst,-0.3669724770642202,,,(based on tag)
1107,,DispreferenceFirst,dispreferenceFirst,-0.7401924500370096,,,(based on tag)
1108,,DispreferenceFirst,dispreferenceFirst,-0.7342143906020558,,,(based on tag)
1109,,DispreferenceFirst,dispreferenceFirst,-0.8841732979664014,,,(based on tag)
1110,,DispreferenceFirst,dispreferenceFirst,-0.7621951219512195,,,(based on tag)
1111,,DispreferenceFirst,dispreferenceFirst,-0.6680026720106881,,,(based on tag)
1112,,DispreferenceFirst,dispreferenceFirst,-0.6788866259334692,,,(based on tag)
1113,,DispreferenceFirst,dispreferenceFirst,-0.6013229104028863,,,(based on tag)
1114,,DispreferenceFirst,dispreferenceFirst,-0.28546959748786754,,,(any response)
1115,,DispreferenceFirst,dispreferenceFirst,-0.6215040397762586,,,(based on tag)
1116,,DispreferenceFirst,dispreferenceFirst,-0.8598452278589854,,,(based on tag)
1117,,DispreferenceFirst,dispreferenceFirst,-0.8103727714748784,,,(based on tag)
1118,,DispreferenceFirst,dispreferenceFirst,-0.8539709649871904,,,(based on tag)
1119,,DispreferenceFirst,dispreferenceFirst,-0.8665511265164645,,,(based on tag)
1120,,DispreferenceFirst,dispreferenceFirst,-0.4672897196261682,,,(based on tag)
1121,,DispreferenceFirst,dispreferenceFirst,-0.9033423667570009,,,(based on tag)
1122,,DispreferenceFirst,dispreferenceFirst,-0.7385524372230429,,,(based on tag)
1123,,DispreferenceFirst,dispreferenceFirst,-0.8298755186721992,,,(based on tag)
1124,,DispreferenceFirst,dispreferenceFirst,-0.5128205128205128,,,(based on tag)
1125,,DispreferenceFirst,dispreferenceFirst,-0.6711409395973155,,,(based on tag)
1126,,DispreferenceFirst,dispreferenceFirst,-0.778816199376947,,,(based on tag)
1127,,DispreferenceFirst,dispreferenceFirst,-0.6002400960384153,,,(based on tag)
1128,,DispreferenceFirst,dispreferenceFirst,-0.6684491978609626,,,(based on tag)
1129,,DispreferenceFirst,dispreferenceFirst,-0.7874015748031497,,,(based on tag)
1130,,DispreferenceFirst,dispreferenceFirst,-0.6349206349206349,,,(based on tag)
1131,,DispreferenceFirst,dispreferenceFirst,-0.6153846153846154,,,(based on tag)
1132,,DispreferenceFirst,dispreferenceFirst,-0.6226650062266501,,,(based on tag)
1133,,DispreferenceFirst,dispreferenceFirst,-0.8748906386701663,,,(based on tag)
1134,,DispreferenceFirst,dispreferenceFirst,-0.7380073800738007,,,(based on tag)
1135,,DispreferenceFirst,dispreferenceFirst,-0.6891798759476223,,,(based on tag)
1136,,DispreferenceFirst,dispreferenceFirst,-0.9746588693957114,,,(based on tag)
1137,,DispreferenceFirst,dispreferenceFirst,-0.6349206349206349,,,(based on tag)
1138,,DispreferenceFirst,dispreferenceFirst,-0.724112961622013,,,(based on tag)
1139,,DispreferenceFirst,dispreferenceFirst,-0.42955326460481097,,,(based on tag)
1140,,DispreferenceFirst,dispreferenceFirst,-0.5807200929152149,,,(based on tag)
1141,,DispreferenceFirst,dispreferenceFirst,-0.5803830528148578,,,(based on tag)
1142,,DispreferenceFirst,dispreferenceFirst,-0.5711022272986864,,,(based on tag)
1143,,DispreferenceFirst,dispreferenceFirst,-0.9746588693957114,,,(based on tag)
1144,,DispreferenceFirst,dispreferenceFirst,-0.5305039787798409,,,(based on tag)
1145,,DispreferenceFirst,dispreferenceFirst,-0.5837711617046117,,,(based on tag)
1146,,DispreferenceFirst,dispreferenceFirst,-0.8984725965858041,,,(based on tag)
1147,,DispreferenceFirst,dispreferenceFirst,-0.2830455703368242,,,(any response)
1148,,DispreferenceFirst,dispreferenceFirst,-0.44583147570218457,,,(based on tag)
1149,,DispreferenceFirst,dispreferenceFirst,-0.6553079947575361,,,(based on tag)
1150,,DispreferenceFirst,dispreferenceFirst,-0.851063829787234,,,(based on tag)
1151,,DispreferenceFirst,dispreferenceFirst,-0.7855459544383346,,,(based on tag)
1152,,DispreferenceFirst,dispreferenceFirst,-0.6779661016949152,,,(based on tag)
1153,,DispreferenceFirst,dispreferenceFirst,-0.7288629737609329,,,(based on tag)
1154,,DispreferenceFirst,dispreferenceFirst,-0.5254860746190226,,,(based on tag)
1155,,DispreferenceFirst,dispreferenceFirst,-0.6218905472636815,,,(based on tag)
1156,,DispreferenceFirst,dispreferenceFirst,-0.6644518272425249,,,(based on tag)
1157,,DispreferenceFirst,dispreferenceFirst,-0.5834305717619603,,,(based on tag)
1158,,DispreferenceFirst,dispreferenceFirst,-0.6793478260869565,,,(based on tag)
1159,,DispreferenceFirst,dispreferenceFirst,-0.5602240896358543,,,(based on tag)
1160,,DispreferenceFirst,dispreferenceFirst,-0.6958942240779401,,,(based on tag)
1161,,DispreferenceFirst,dispreferenceFirst,-0.5633802816901409,,,(based on tag)
1162,,DispreferenceFirst,dispreferenceFirst,-0.7102272727272727,,,(based on tag)
1163,,DispreferenceFirst,dispreferenceFirst,-1.0351966873706004,,,(based on tag)
1164,,DispreferenceFirst,dispreferenceFirst,-0.8340283569641368,,,(based on tag)
1165,,DispreferenceFirst,dispreferenceFirst,-0.7352941176470589,,,(based on tag)
1166,,DispreferenceFirst,dispreferenceFirst,-0.4106776180698152,,,(based on tag)
1167,,DispreferenceFirst,dispreferenceFirst,-0.6684491978609626,,,(based on tag)
1168,,DispreferenceFirst,dispreferenceFirst,-0.5263157894736842,,,(based on tag)
1169,,DispreferenceFirst,dispreferenceFirst,-0.7855459544383346,,,(based on tag)
1170,,DispreferenceFirst,dispreferenceFirst,-0.5524861878453039,,,(based on tag)
1171,,DispreferenceFirst,dispreferenceFirst,-0.43029259896729777,,,(based on tag)
1172,,DispreferenceFirst,dispreferenceFirst,-0.5341880341880342,,,(based on tag)
1173,,DispreferenceFirst,dispreferenceFirst,-0.8389261744966443,,,(based on tag)
1174,,DispreferenceFirst,dispreferenceFirst,-0.49091801669121254,,,(based on tag)
1175,,DispreferenceFirst,dispreferenceFirst,-0.6609385327164574,,,(based on tag)
1176,,DispreferenceFirst,dispreferenceFirst,-0.8216926869350862,,,(based on tag)
1177,,DispreferenceFirst,dispreferenceFirst,-0.6693440428380187,,,(based on tag)
1178,,DispreferenceFirst,dispreferenceFirst,-0.7067137809187279,,,(based on tag)
1179,,DispreferenceFirst,dispreferenceFirst,-0.6414368184733804,,,(based on tag)
1180,,DispreferenceFirst,dispreferenceFirst,-0.36643459142543056,,,(any response)